subject,trial,sequence,stimRep,accuracy,rt
1,1,CBA,no,1,937
1,2,ABA,no,1,1862
1,3,ABA,no,1,1075
1,4,CBA,no,1,879
1,5,CBA,yes,1,1269
1,6,CBA,no,1,894
1,7,ABA,no,1,1859
1,8,ABA,yes,1,830
1,9,CBA,no,1,862
1,10,ABA,no,1,1055
1,11,ABA,no,1,1172
1,12,CBA,yes,1,1209
1,13,CBA,yes,1,1326
1,14,ABA,no,1,1474
1,15,ABA,no,1,1258
1,16,CBA,no,1,1759
1,17,ABA,yes,1,921
1,18,CBA,no,1,1341
1,19,CBA,yes,1,991
1,20,CBA,no,1,874
1,21,ABA,no,1,1665
1,22,CBA,no,1,1232
1,23,CBA,no,1,876
1,24,ABA,no,1,1557
1,25,ABA,no,1,918
1,26,ABA,yes,1,1180
1,27,ABA,no,1,960
1,28,CBA,no,1,1140
1,29,CBA,no,1,1784
1,30,ABA,no,1,1104
1,31,CBA,no,1,1016
1,32,ABA,no,1,1590
1,33,ABA,no,1,937
1,34,CBA,no,1,1311
1,35,CBA,no,1,1014
1,36,ABA,no,1,1161
1,37,CBA,no,1,842
1,38,ABA,no,1,2421
1,39,CBA,no,1,890
1,40,CBA,yes,1,902
1,41,CBA,yes,1,1605
1,42,CBA,no,1,1168
1,43,CBA,yes,1,751
1,44,ABA,no,1,1726
1,45,ABA,no,1,745
1,46,ABA,yes,1,1599
1,47,CBA,yes,1,1122
1,48,ABA,no,1,954
1,49,CBA,yes,1,711
1,50,ABA,no,1,1069
1,51,CBA,yes,1,1083
1,52,CBA,no,1,776
1,53,CBA,no,1,750
1,54,CBA,yes,1,776
1,55,CBA,yes,1,717
1,56,ABA,no,1,1250
1,57,CBA,no,1,628
1,58,ABA,no,1,1712
1,59,CBA,yes,1,822
1,60,ABA,no,1,1148
1,61,CBA,no,1,996
1,62,CBA,no,1,706
1,63,CBA,no,1,908
1,64,ABA,no,1,760
1,65,CBA,no,1,707
1,66,ABA,no,1,809
1,67,ABA,no,1,1125
1,68,ABA,no,1,712
1,69,CBA,no,1,897
1,70,ABA,yes,1,760
1,71,CBA,yes,1,1304
1,72,CBA,no,1,927
1,73,CBA,no,1,706
1,74,CBA,no,1,871
1,75,ABA,no,1,853
1,76,ABA,no,1,1198
1,77,CBA,no,1,1161
1,78,ABA,yes,1,721
1,79,CBA,yes,1,908
1,80,ABA,no,1,950
1,81,ABA,no,1,901
1,82,CBA,no,1,1021
1,83,ABA,no,1,740
1,84,CBA,no,1,754
1,85,CBA,no,1,1197
1,86,ABA,no,1,873
1,87,ABA,no,1,1375
1,88,CBA,no,1,646
1,89,CBA,yes,1,701
1,90,CBA,no,1,936
1,91,CBA,no,1,732
1,92,ABA,yes,1,1511
1,93,CBA,no,1,840
1,94,CBA,no,1,680
1,95,ABA,no,1,832
1,96,ABA,yes,1,623
1,97,CBA,yes,1,779
1,98,ABA,no,1,1062
1,99,ABA,no,1,1535
1,100,ABA,yes,1,595
1,101,ABA,no,1,1536
1,102,CBA,no,1,887
1,103,CBA,no,1,649
1,104,ABA,no,1,802
1,105,ABA,no,1,815
1,106,CBA,no,1,1637
1,107,CBA,yes,1,627
1,108,CBA,no,1,686
1,109,ABA,no,1,855
1,110,CBA,no,1,1015
1,111,CBA,no,1,631
1,112,ABA,no,1,1017
1,113,CBA,no,1,708
1,114,ABA,no,1,2052
1,115,ABA,no,1,835
1,116,CBA,no,1,834
1,117,CBA,yes,1,1034
1,118,CBA,yes,1,945
1,119,ABA,no,1,1074
1,120,ABA,no,1,1063
1,121,ABA,yes,1,950
1,122,ABA,no,1,630
1,123,CBA,yes,1,679
1,124,ABA,no,1,686
1,125,CBA,no,1,1113
1,126,ABA,no,1,1920
1,127,ABA,no,1,906
1,128,CBA,no,1,648
1,129,CBA,no,1,1471
1,130,CBA,no,1,1062
1,131,CBA,no,1,575
1,132,ABA,no,1,1488
1,133,ABA,yes,1,694
1,134,ABA,no,1,1211
1,135,CBA,yes,1,530
1,136,CBA,no,1,648
1,137,CBA,no,1,1044
1,138,ABA,no,1,633
1,139,ABA,yes,1,800
1,140,ABA,no,1,714
1,141,CBA,yes,1,712
1,142,CBA,no,1,953
1,143,ABA,no,1,706
1,144,ABA,no,1,1013
1,145,CBA,yes,1,832
1,146,CBA,yes,1,855
1,147,ABA,no,1,2126
1,148,CBA,no,1,1327
1,149,CBA,no,1,892
1,150,CBA,no,1,813
1,151,ABA,yes,1,715
1,152,ABA,no,1,715
1,153,CBA,no,1,1012
1,154,ABA,no,1,726
1,155,ABA,no,1,992
1,156,ABA,no,1,717
1,157,ABA,no,1,1493
1,158,ABA,yes,1,756
1,159,CBA,yes,1,959
1,160,ABA,no,1,969
1,161,CBA,no,1,909
1,162,CBA,yes,1,571
1,163,CBA,yes,1,1267
1,164,CBA,no,1,759
1,165,CBA,no,1,750
1,166,CBA,no,1,960
1,167,CBA,no,1,1439
1,168,ABA,no,1,772
1,169,ABA,yes,1,1502
1,170,ABA,no,1,769
1,171,CBA,no,1,656
1,172,CBA,yes,1,881
1,173,ABA,no,1,1433
1,174,CBA,yes,1,1118
1,175,ABA,no,1,722
1,176,ABA,no,1,794
1,177,CBA,yes,1,952
1,178,CBA,no,1,1200
1,179,CBA,no,1,702
1,180,CBA,no,1,1279
1,181,CBA,no,1,679
1,182,CBA,no,1,780
1,183,CBA,no,1,1177
1,184,ABA,yes,1,1043
1,185,ABA,no,1,1307
1,186,ABA,no,1,649
1,187,CBA,no,1,892
1,188,CBA,no,1,895
1,189,ABA,no,1,865
1,190,CBA,no,1,824
1,191,CBA,yes,1,1359
1,192,CBA,no,1,766
1,193,ABA,no,1,1234
1,194,ABA,no,1,1276
1,195,ABA,no,1,1625
1,196,CBA,no,1,683
1,197,CBA,no,1,798
1,198,ABA,no,1,1718
1,199,ABA,no,1,1169
1,200,CBA,no,1,902
1,201,ABA,yes,1,865
1,202,CBA,no,1,754
1,203,CBA,no,1,930
1,204,CBA,yes,1,912
1,205,ABA,yes,1,787
1,206,ABA,no,1,1254
1,207,CBA,no,1,735
1,208,ABA,no,1,1344
1,209,CBA,no,1,872
1,210,ABA,no,1,1877
1,211,ABA,no,1,901
1,212,ABA,no,1,1395
1,213,CBA,no,1,685
1,214,ABA,no,0,1766
1,215,ABA,no,1,768
1,216,CBA,no,1,1446
1,217,ABA,no,1,1378
1,218,ABA,no,1,951
1,219,CBA,no,1,764
1,220,ABA,no,1,1475
1,221,ABA,no,1,630
1,222,CBA,no,1,940
1,223,CBA,no,1,1495
1,224,CBA,no,1,674
1,225,ABA,no,1,1098
1,226,CBA,no,1,793
1,227,ABA,no,1,1169
1,228,CBA,no,1,675
1,229,ABA,no,1,1772
1,230,ABA,no,1,895
1,231,CBA,no,1,687
1,232,ABA,yes,1,849
1,233,ABA,yes,1,700
1,234,CBA,yes,1,781
1,235,ABA,no,1,832
1,236,ABA,no,1,1293
1,237,ABA,no,1,843
1,238,ABA,no,1,1437
1,239,CBA,no,1,979
1,240,CBA,yes,1,1768
1,241,CBA,no,1,1025
1,242,CBA,no,1,648
1,243,CBA,no,1,576
1,244,ABA,no,1,770
1,245,CBA,no,1,686
1,246,ABA,no,1,1026
1,247,ABA,no,1,812
1,248,ABA,no,1,805
1,249,ABA,no,1,949
1,250,ABA,no,1,1049
1,251,ABA,yes,1,874
1,252,CBA,no,1,684
1,253,CBA,no,1,717
1,254,CBA,no,1,864
1,255,ABA,no,1,699
1,256,CBA,no,1,652
1,257,ABA,no,1,1075
1,258,ABA,no,1,689
1,259,ABA,no,1,764
1,260,ABA,no,1,664
1,261,CBA,yes,1,710
1,262,ABA,no,1,723
1,263,CBA,no,1,723
1,264,CBA,yes,1,883
1,265,ABA,no,1,1300
1,266,ABA,yes,1,917
1,267,ABA,no,1,1027
1,268,ABA,no,1,1357
1,269,CBA,no,1,601
1,270,CBA,yes,1,980
1,271,CBA,no,1,953
1,272,ABA,no,1,1614
1,273,ABA,no,1,866
1,274,CBA,yes,1,682
1,275,ABA,no,1,1038
1,276,CBA,yes,1,600
1,277,CBA,yes,1,665
1,278,CBA,no,1,1170
1,279,CBA,no,1,906
1,280,ABA,yes,1,2044
1,281,ABA,no,1,1058
1,282,ABA,no,1,912
1,283,ABA,no,1,746
1,284,ABA,yes,1,766
1,285,CBA,no,1,754
1,286,CBA,no,1,844
1,287,CBA,no,1,932
1,288,ABA,no,1,742
1,289,CBA,no,1,832
1,290,ABA,no,1,757
1,291,ABA,yes,1,870
1,292,ABA,no,1,686
1,293,CBA,no,1,879
1,294,ABA,no,1,713
1,295,CBA,no,1,943
1,296,CBA,yes,1,1162
1,297,ABA,no,1,950
1,298,ABA,no,1,1171
1,299,ABA,no,1,768
1,300,ABA,yes,1,967
1,301,CBA,yes,1,730
1,302,CBA,no,1,714
1,303,ABA,yes,1,783
1,304,CBA,yes,1,877
1,305,ABA,no,1,716
1,306,CBA,yes,1,678
1,307,ABA,yes,1,1567
1,308,CBA,no,1,696
1,309,CBA,no,1,668
1,310,ABA,no,1,1060
1,311,ABA,yes,1,720
1,312,CBA,no,1,922
1,313,CBA,yes,1,1343
1,314,CBA,no,1,1110
1,315,ABA,no,1,1208
1,316,ABA,no,1,762
1,317,CBA,yes,1,919
1,318,CBA,yes,1,992
1,319,ABA,no,1,679
1,320,CBA,no,1,825
1,321,CBA,no,1,1097
1,322,ABA,yes,1,746
1,323,CBA,no,1,809
1,324,ABA,yes,1,730
1,325,ABA,no,1,1052
1,326,CBA,no,1,1350
1,327,ABA,yes,1,1145
1,328,CBA,yes,1,756
1,329,CBA,yes,1,916
1,330,CBA,no,1,1366
1,331,ABA,yes,0,974
1,332,CBA,yes,1,769
1,333,CBA,no,1,929
1,334,ABA,no,1,814
1,335,CBA,yes,1,1042
1,336,CBA,no,1,1003
1,337,CBA,no,1,790
1,338,CBA,yes,1,1072
1,339,CBA,no,1,774
1,340,ABA,no,1,1156
1,341,ABA,no,1,1549
1,342,CBA,no,1,828
1,343,ABA,no,1,846
1,344,CBA,no,1,1113
1,345,CBA,no,1,709
1,346,CBA,no,1,865
1,347,CBA,yes,1,763
1,348,ABA,no,1,1444
1,349,CBA,no,1,743
1,350,ABA,no,1,1030
1,351,ABA,no,1,883
1,352,CBA,no,1,1036
1,353,CBA,yes,1,933
1,354,CBA,yes,1,708
1,355,ABA,no,1,986
1,356,ABA,no,1,609
1,357,ABA,no,1,687
1,358,ABA,no,1,739
1,359,CBA,no,1,718
1,360,ABA,no,1,676
1,361,ABA,no,1,998
1,362,ABA,yes,1,667
1,363,CBA,no,1,777
1,364,CBA,yes,1,941
1,365,CBA,yes,1,615
1,366,ABA,no,1,617
1,367,CBA,no,1,777
1,368,CBA,no,1,590
1,369,ABA,no,1,710
1,370,CBA,no,1,631
1,371,ABA,no,1,886
1,372,CBA,no,1,642
1,373,ABA,no,1,1178
1,374,CBA,no,1,649
1,375,ABA,no,1,1056
1,376,CBA,no,1,647
1,377,CBA,no,1,1098
1,378,ABA,no,1,617
1,379,ABA,no,1,1586
1,380,CBA,yes,1,706
1,381,ABA,no,1,772
1,382,CBA,no,1,607
1,383,CBA,no,1,1127
1,384,CBA,yes,1,1202
1,385,ABA,no,1,1163
1,386,CBA,no,1,680
1,387,ABA,no,1,753
1,388,CBA,no,1,1028
1,389,ABA,no,1,1163
1,390,CBA,no,1,699
1,391,ABA,yes,1,793
1,392,CBA,no,1,916
1,393,CBA,no,1,1004
1,394,CBA,no,1,798
1,395,ABA,no,1,765
1,396,ABA,no,1,755
1,397,CBA,no,1,884
1,398,ABA,no,1,1298
1,399,ABA,no,1,1587
1,400,ABA,yes,1,689
1,401,CBA,no,1,640
1,402,ABA,no,1,973
1,403,ABA,no,1,654
1,404,CBA,no,1,2006
1,405,ABA,no,1,709
1,406,CBA,yes,1,723
1,407,ABA,no,1,670
1,408,ABA,no,1,777
1,409,ABA,no,1,721
1,410,ABA,yes,1,692
1,411,ABA,no,1,914
1,412,CBA,no,1,748
1,413,CBA,no,1,1108
1,414,CBA,yes,1,690
1,415,ABA,no,1,615
1,416,CBA,yes,1,699
1,417,CBA,no,1,631
1,418,ABA,no,1,950
1,419,CBA,no,1,625
1,420,ABA,no,1,1093
1,421,ABA,yes,1,608
1,422,ABA,yes,1,942
1,423,CBA,no,1,766
1,424,CBA,no,1,849
1,425,ABA,no,1,1074
1,426,ABA,no,1,955
1,427,CBA,no,1,884
1,428,ABA,no,1,1135
1,429,ABA,no,1,1191
1,430,ABA,no,1,884
1,431,CBA,yes,1,989
1,432,ABA,yes,1,1124
1,433,CBA,yes,1,857
1,434,CBA,no,1,670
1,435,CBA,yes,1,799
1,436,CBA,no,1,922
1,437,ABA,no,1,636
1,438,CBA,yes,1,811
1,439,ABA,yes,1,683
1,440,ABA,no,1,622
1,441,CBA,no,1,937
1,442,ABA,no,1,611
1,443,ABA,yes,1,1660
1,444,ABA,yes,1,828
1,445,ABA,no,1,1445
1,446,CBA,yes,1,584
1,447,ABA,no,1,760
1,448,CBA,no,1,658
1,449,CBA,no,1,1050
1,450,CBA,yes,1,795
1,451,CBA,yes,1,766
1,452,CBA,no,1,603
1,453,CBA,yes,1,754
1,454,ABA,no,1,866
1,455,ABA,no,1,984
1,456,ABA,no,1,762
1,457,ABA,no,1,793
1,458,ABA,no,1,849
1,459,ABA,no,1,863
1,460,CBA,no,1,654
1,461,CBA,yes,1,739
1,462,ABA,yes,1,673
1,463,CBA,no,1,693
1,464,CBA,no,1,710
1,465,ABA,no,1,688
1,466,CBA,no,1,640
1,467,ABA,no,1,1093
1,468,ABA,yes,1,647
1,469,CBA,yes,1,575
1,470,CBA,yes,1,797
1,471,ABA,no,1,1275
1,472,CBA,no,1,645
1,473,ABA,no,1,697
1,474,ABA,no,1,695
1,475,CBA,no,1,786
1,476,CBA,no,1,1237
1,477,ABA,no,1,1004
1,478,ABA,yes,1,637
1,479,ABA,no,1,1237
1,480,CBA,no,1,1339
10,1,CBA,no,1,579
10,2,CBA,no,1,537
10,3,CBA,yes,0,765
10,4,CBA,no,1,764
10,5,ABA,no,1,644
10,6,CBA,no,1,698
10,7,CBA,no,1,677
10,8,CBA,yes,1,1445
10,9,ABA,no,1,870
10,10,ABA,no,1,1036
10,11,ABA,no,1,2194
10,12,CBA,no,1,1078
10,13,CBA,no,1,595
10,14,CBA,no,1,983
10,15,CBA,yes,1,566
10,16,ABA,no,1,726
10,17,CBA,no,1,1016
10,18,CBA,no,1,707
10,19,ABA,no,1,792
10,20,CBA,no,1,911
10,21,ABA,no,1,617
10,22,CBA,yes,1,596
10,23,CBA,no,1,653
10,24,ABA,yes,1,781
10,25,ABA,no,0,1303
10,26,ABA,yes,1,1175
10,27,ABA,no,1,1359
10,28,CBA,no,1,667
10,29,CBA,no,1,613
10,30,ABA,yes,1,1131
10,31,CBA,yes,1,629
10,32,ABA,no,1,790
10,33,ABA,yes,1,976
10,34,ABA,no,1,697
10,35,ABA,no,1,1209
10,36,ABA,no,1,670
10,37,CBA,no,1,987
10,38,ABA,no,1,1105
10,39,ABA,no,1,987
10,40,CBA,no,0,1120
10,41,CBA,yes,1,1655
10,42,CBA,yes,1,562
10,43,CBA,no,1,637
10,44,ABA,yes,1,885
10,45,ABA,yes,1,568
10,46,ABA,no,1,865
10,47,CBA,yes,1,1152
10,48,CBA,no,1,1037
10,49,ABA,no,1,737
10,50,ABA,no,1,1917
10,51,ABA,no,1,517
10,52,ABA,no,1,1159
10,53,ABA,no,1,878
10,54,ABA,yes,1,787
10,55,CBA,no,1,959
10,56,ABA,no,1,1212
10,57,CBA,no,1,1304
10,58,ABA,yes,1,606
10,59,ABA,no,1,1261
10,60,CBA,yes,1,549
10,61,ABA,no,1,1797
10,62,CBA,no,1,581
10,63,ABA,no,1,928
10,64,ABA,no,1,827
10,65,ABA,no,1,868
10,66,CBA,no,1,673
10,67,CBA,no,1,787
10,68,ABA,no,1,648
10,69,ABA,no,1,923
10,70,ABA,no,1,583
10,71,ABA,yes,1,872
10,72,ABA,no,1,820
10,73,ABA,no,1,757
10,74,ABA,yes,1,1073
10,75,ABA,no,1,642
10,76,CBA,no,1,654
10,77,ABA,no,1,828
10,78,CBA,no,1,1189
10,79,ABA,no,1,1799
10,80,ABA,no,1,595
10,81,CBA,no,1,858
10,82,CBA,no,1,1381
10,83,ABA,no,1,990
10,84,CBA,no,1,473
10,85,CBA,no,1,714
10,86,ABA,yes,1,989
10,87,CBA,yes,0,622
10,88,CBA,no,1,1862
10,89,CBA,yes,1,1241
10,90,CBA,no,1,618
10,91,CBA,no,1,1083
10,92,CBA,yes,1,758
10,93,CBA,no,1,959
10,94,ABA,no,1,946
10,95,CBA,no,1,808
10,96,CBA,no,1,700
10,97,ABA,yes,1,627
10,98,ABA,yes,1,1606
10,99,CBA,no,1,561
10,100,CBA,no,1,864
10,101,CBA,no,1,610
10,102,ABA,no,1,799
10,103,CBA,no,0,715
10,104,CBA,no,1,1415
10,105,ABA,no,1,1194
10,106,ABA,no,1,1552
10,107,CBA,yes,1,698
10,108,CBA,no,1,753
10,109,ABA,yes,1,950
10,110,CBA,no,1,875
10,111,ABA,no,1,1125
10,112,ABA,yes,1,714
10,113,ABA,no,1,864
10,114,CBA,no,1,530
10,115,ABA,yes,1,1094
10,116,ABA,no,1,1223
10,117,ABA,no,1,1084
10,118,CBA,no,1,1438
10,119,CBA,no,1,785
10,120,CBA,yes,1,898
10,121,ABA,no,1,616
10,122,CBA,no,1,525
10,123,CBA,no,1,1092
10,124,ABA,no,1,1127
10,125,CBA,no,1,687
10,126,CBA,no,1,551
10,127,CBA,no,1,833
10,128,ABA,no,1,673
10,129,CBA,no,1,946
10,130,CBA,no,1,1061
10,131,CBA,no,1,530
10,132,ABA,no,1,696
10,133,ABA,no,1,765
10,134,CBA,yes,1,729
10,135,ABA,yes,1,1077
10,136,ABA,yes,1,901
10,137,ABA,no,1,781
10,138,ABA,no,1,1071
10,139,CBA,no,1,1560
10,140,ABA,yes,1,1122
10,141,ABA,no,1,1168
10,142,CBA,no,1,632
10,143,ABA,no,0,887
10,144,ABA,no,1,1153
10,145,CBA,no,1,725
10,146,ABA,no,1,1242
10,147,ABA,no,1,1081
10,148,ABA,no,1,1594
10,149,CBA,no,1,1207
10,150,CBA,yes,1,686
10,151,ABA,no,1,1008
10,152,ABA,yes,1,1506
10,153,ABA,no,1,1010
10,154,CBA,no,1,668
10,155,CBA,no,1,1223
10,156,ABA,no,1,765
10,157,CBA,no,1,1183
10,158,CBA,yes,1,1083
10,159,ABA,no,0,856
10,160,CBA,yes,1,538
10,161,ABA,yes,1,1386
10,162,ABA,no,1,1254
10,163,CBA,no,1,972
10,164,ABA,no,1,743
10,165,ABA,no,1,1534
10,166,CBA,yes,1,928
10,167,ABA,yes,1,813
10,168,ABA,no,1,1512
10,169,ABA,no,1,1787
10,170,ABA,no,1,1560
10,171,CBA,yes,1,1533
10,172,ABA,no,1,1035
10,173,ABA,yes,1,1022
10,174,CBA,yes,1,461
10,175,CBA,no,1,637
10,176,CBA,no,1,586
10,177,CBA,yes,1,1105
10,178,ABA,no,1,732
10,179,ABA,no,1,932
10,180,ABA,yes,1,611
10,181,CBA,no,1,849
10,182,CBA,no,1,1371
10,183,ABA,no,1,1588
10,184,CBA,no,1,2456
10,185,CBA,yes,1,1324
10,186,CBA,no,1,1043
10,187,CBA,no,1,1171
10,188,ABA,yes,1,1229
10,189,ABA,no,1,1152
10,190,ABA,no,1,939
10,191,CBA,no,1,1231
10,192,ABA,no,1,1067
10,193,CBA,no,1,1426
10,194,CBA,no,1,628
10,195,CBA,no,1,817
10,196,ABA,no,1,1315
10,197,CBA,no,1,843
10,198,ABA,no,1,856
10,199,CBA,no,1,1989
10,200,ABA,no,1,989
10,201,ABA,yes,0,995
10,202,ABA,yes,1,1212
10,203,ABA,no,1,750
10,204,ABA,no,1,490
10,205,CBA,no,1,574
10,206,ABA,no,1,810
10,207,CBA,no,1,606
10,208,ABA,no,1,1019
10,209,ABA,no,1,1208
10,210,CBA,no,1,1068
10,211,ABA,yes,1,872
10,212,ABA,no,0,845
10,213,ABA,yes,1,2637
10,214,CBA,yes,1,611
10,215,CBA,no,1,698
10,216,ABA,yes,1,982
10,217,ABA,no,1,711
10,218,CBA,no,1,727
10,219,CBA,no,1,729
10,220,CBA,no,1,1219
10,221,CBA,yes,1,1987
10,222,CBA,no,1,1352
10,223,ABA,no,1,711
10,224,CBA,no,1,661
10,225,ABA,no,1,751
10,226,ABA,no,1,927
10,227,CBA,yes,1,528
10,228,ABA,no,1,956
10,229,CBA,yes,1,743
10,230,ABA,no,1,1115
10,231,CBA,no,1,622
10,232,CBA,no,1,863
10,233,ABA,no,1,617
10,234,ABA,yes,1,943
10,235,ABA,yes,1,1050
10,236,CBA,no,1,768
10,237,ABA,no,1,1243
10,238,CBA,no,1,1237
10,239,CBA,no,1,1172
10,240,CBA,no,1,1932
10,241,ABA,yes,1,728
10,242,CBA,yes,1,507
10,243,CBA,no,1,719
10,244,CBA,no,1,1158
10,245,ABA,no,1,554
10,246,ABA,no,1,613
10,247,ABA,no,1,594
10,248,ABA,yes,1,620
10,249,ABA,no,1,693
10,250,CBA,no,1,667
10,251,ABA,no,1,610
10,252,CBA,no,1,501
10,253,CBA,no,1,848
10,254,CBA,no,1,504
10,255,CBA,yes,1,1071
10,256,CBA,yes,1,2039
10,257,ABA,no,1,841
10,258,CBA,no,1,568
10,259,ABA,no,1,752
10,260,ABA,yes,1,639
10,261,CBA,no,1,958
10,262,CBA,no,1,938
10,263,ABA,no,1,924
10,264,ABA,no,1,963
10,265,CBA,no,1,1391
10,266,ABA,no,1,1191
10,267,CBA,no,1,1207
10,268,CBA,no,1,686
10,269,ABA,yes,1,1341
10,270,ABA,no,1,630
10,271,CBA,no,1,1139
10,272,ABA,no,1,1292
10,273,ABA,no,1,844
10,274,CBA,no,1,1173
10,275,ABA,no,1,1060
10,276,CBA,yes,1,1387
10,277,CBA,no,1,1621
10,278,ABA,no,1,618
10,279,ABA,no,1,1476
10,280,CBA,no,1,697
10,281,ABA,no,1,703
10,282,CBA,no,1,624
10,283,CBA,no,1,701
10,284,ABA,no,1,542
10,285,CBA,no,1,912
10,286,CBA,no,1,863
10,287,ABA,no,0,1304
10,288,CBA,yes,1,1558
10,289,CBA,no,1,1169
10,290,ABA,no,1,602
10,291,CBA,no,1,524
10,292,ABA,yes,1,568
10,293,ABA,no,1,1222
10,294,ABA,no,1,816
10,295,CBA,yes,1,566
10,296,ABA,no,1,1161
10,297,ABA,no,1,1713
10,298,CBA,no,1,1358
10,299,CBA,no,1,624
10,300,CBA,no,1,575
10,301,CBA,no,1,1440
10,302,ABA,yes,1,535
10,303,ABA,no,1,783
10,304,CBA,no,1,859
10,305,CBA,no,1,832
10,306,ABA,no,1,1068
10,307,CBA,no,1,977
10,308,CBA,no,1,1113
10,309,ABA,no,1,1278
10,310,CBA,no,1,1174
10,311,CBA,no,1,1702
10,312,CBA,no,1,834
10,313,ABA,yes,1,2272
10,314,ABA,yes,1,1508
10,315,ABA,no,1,986
10,316,ABA,yes,1,1115
10,317,ABA,no,1,629
10,318,ABA,no,1,968
10,319,ABA,yes,1,2464
10,320,ABA,no,1,1411
10,321,ABA,no,1,1048
10,322,ABA,yes,1,728
10,323,CBA,yes,1,724
10,324,ABA,no,1,3821
10,325,ABA,no,1,2861
10,326,ABA,no,1,990
10,327,ABA,no,1,509
10,328,ABA,yes,1,1024
10,329,ABA,yes,1,575
10,330,CBA,yes,1,927
10,331,ABA,no,1,921
10,332,ABA,no,0,1933
10,333,CBA,no,1,1624
10,334,CBA,no,1,1064
10,335,ABA,no,1,1427
10,336,ABA,no,1,937
10,337,CBA,no,1,858
10,338,CBA,yes,1,1390
10,339,ABA,no,1,807
10,340,CBA,no,1,1380
10,341,ABA,no,1,1132
10,342,ABA,no,1,769
10,343,CBA,no,1,778
10,344,CBA,no,1,642
10,345,ABA,yes,1,719
10,346,ABA,no,1,1025
10,347,ABA,no,1,1460
10,348,CBA,no,1,620
10,349,ABA,no,1,1230
10,350,CBA,no,1,1048
10,351,ABA,yes,1,1165
10,352,ABA,no,1,1007
10,353,ABA,no,1,696
10,354,ABA,no,1,763
10,355,ABA,no,1,580
10,356,ABA,no,1,751
10,357,ABA,no,1,1185
10,358,ABA,yes,1,1296
10,359,ABA,no,1,940
10,360,ABA,no,1,783
10,361,CBA,no,1,464
10,362,ABA,no,1,503
10,363,CBA,yes,0,631
10,364,ABA,no,1,539
10,365,ABA,no,1,823
10,366,CBA,no,1,587
10,367,ABA,no,1,1089
10,368,ABA,yes,1,2571
10,369,ABA,no,1,1669
10,370,CBA,no,1,641
10,371,CBA,no,1,620
10,372,CBA,yes,1,850
10,373,ABA,no,1,956
10,374,CBA,no,1,1281
10,375,CBA,no,0,998
10,376,ABA,no,1,603
10,377,ABA,no,1,647
10,378,ABA,no,1,543
10,379,ABA,no,1,524
10,380,ABA,yes,1,606
10,381,CBA,no,1,542
10,382,CBA,no,1,894
10,383,ABA,no,1,765
10,384,ABA,yes,1,3659
10,385,CBA,no,1,513
10,386,CBA,yes,1,616
10,387,ABA,no,1,899
10,388,CBA,no,1,2185
10,389,CBA,yes,1,2537
10,390,CBA,yes,0,1792
10,391,ABA,no,1,586
10,392,CBA,yes,1,499
10,393,CBA,no,1,2240
10,394,ABA,no,1,1240
10,395,CBA,no,1,730
10,396,CBA,yes,1,719
10,397,CBA,yes,1,660
10,398,CBA,yes,1,1105
10,399,ABA,no,1,1639
10,400,ABA,yes,1,1644
10,401,CBA,no,1,553
10,402,ABA,no,1,618
10,403,ABA,no,1,1700
10,404,ABA,no,1,1238
10,405,CBA,no,1,775
10,406,ABA,no,1,724
10,407,ABA,no,1,1305
10,408,CBA,no,1,703
10,409,ABA,no,1,952
10,410,CBA,no,1,1729
10,411,CBA,no,1,835
10,412,CBA,no,1,1216
10,413,ABA,yes,1,858
10,414,ABA,no,1,1027
10,415,CBA,no,1,708
10,416,ABA,yes,1,2772
10,417,ABA,no,1,569
10,418,ABA,no,0,540
10,419,CBA,no,1,834
10,420,ABA,no,1,1545
10,421,CBA,no,1,740
10,422,ABA,no,1,827
10,423,CBA,no,1,572
10,424,ABA,no,1,1156
10,425,CBA,no,1,697
10,426,ABA,no,1,2101
10,427,ABA,no,1,1992
10,428,ABA,no,1,2757
10,429,CBA,yes,1,657
10,430,ABA,no,0,900
10,431,ABA,yes,1,700
10,432,CBA,no,1,1301
10,433,ABA,yes,1,606
10,434,CBA,no,1,910
10,435,CBA,no,1,1028
10,436,CBA,no,1,701
10,437,CBA,no,1,1812
10,438,CBA,no,1,651
10,439,CBA,no,1,786
10,440,ABA,no,1,659
10,441,CBA,yes,1,1488
10,442,CBA,yes,1,1100
10,443,ABA,yes,1,2322
10,444,ABA,no,1,1573
10,445,CBA,yes,1,901
10,446,CBA,no,1,1043
10,447,ABA,no,1,738
10,448,CBA,yes,1,666
10,449,ABA,no,1,1015
10,450,ABA,no,1,823
10,451,ABA,no,1,877
10,452,CBA,no,1,821
10,453,CBA,no,1,633
10,454,ABA,no,1,1257
10,455,CBA,no,1,2731
10,456,ABA,no,1,703
10,457,CBA,yes,1,1145
10,458,ABA,no,1,991
10,459,ABA,no,1,1004
10,460,ABA,no,1,2665
10,461,CBA,no,1,632
10,462,ABA,no,1,730
10,463,CBA,no,1,995
10,464,ABA,no,1,957
10,465,ABA,no,1,864
10,466,CBA,yes,1,608
10,467,ABA,yes,1,761
10,468,CBA,no,1,2466
10,469,ABA,no,1,1965
10,470,CBA,no,1,750
10,471,CBA,yes,1,1578
10,472,ABA,no,1,676
10,473,ABA,no,1,846
10,474,CBA,yes,1,759
10,475,CBA,no,1,882
10,476,CBA,no,1,896
10,477,CBA,no,1,932
10,478,CBA,no,1,1456
10,479,ABA,no,1,720
10,480,ABA,no,1,642
11,1,CBA,no,1,601
11,2,CBA,no,1,523
11,3,CBA,no,1,502
11,4,ABA,yes,1,492
11,5,CBA,no,1,611
11,6,CBA,yes,1,465
11,7,CBA,no,1,462
11,8,ABA,no,1,543
11,9,CBA,no,1,504
11,10,CBA,yes,1,595
11,11,ABA,yes,1,969
11,12,CBA,no,1,613
11,13,CBA,no,1,522
11,14,ABA,no,1,579
11,15,CBA,no,1,539
11,16,CBA,no,1,532
11,17,ABA,no,1,649
11,18,CBA,no,1,785
11,19,ABA,no,1,839
11,20,CBA,no,1,485
11,21,CBA,no,1,611
11,22,ABA,no,1,476
11,23,ABA,yes,1,593
11,24,ABA,yes,1,581
11,25,CBA,yes,1,667
11,26,CBA,no,1,509
11,27,CBA,no,1,555
11,28,ABA,no,1,634
11,29,CBA,yes,1,789
11,30,ABA,no,1,749
11,31,CBA,no,0,394
11,32,CBA,yes,1,755
11,33,ABA,yes,1,727
11,34,ABA,no,1,596
11,35,ABA,yes,1,893
11,36,CBA,yes,1,514
11,37,CBA,yes,1,422
11,38,CBA,no,1,403
11,39,CBA,yes,1,502
11,40,CBA,no,1,423
11,41,ABA,no,1,513
11,42,CBA,no,1,471
11,43,ABA,no,1,475
11,44,CBA,no,1,539
11,45,ABA,no,1,847
11,46,CBA,no,1,579
11,47,CBA,no,1,701
11,48,CBA,no,1,1205
11,49,CBA,no,1,543
11,50,ABA,no,1,677
11,51,ABA,yes,1,460
11,52,ABA,yes,1,573
11,53,CBA,no,1,763
11,54,CBA,no,1,617
11,55,ABA,yes,1,577
11,56,ABA,no,1,517
11,57,CBA,no,1,534
11,58,ABA,yes,1,459
11,59,ABA,no,1,548
11,60,CBA,no,1,484
11,61,ABA,no,1,404
11,62,CBA,no,1,478
11,63,CBA,yes,1,549
11,64,ABA,yes,1,448
11,65,ABA,no,1,525
11,66,CBA,no,0,379
11,67,CBA,no,1,438
11,68,CBA,yes,1,604
11,69,ABA,no,1,551
11,70,CBA,no,1,541
11,71,CBA,no,0,485
11,72,ABA,no,1,1434
11,73,CBA,yes,1,612
11,74,ABA,no,1,687
11,75,ABA,no,1,587
11,76,CBA,no,1,676
11,77,ABA,no,1,485
11,78,CBA,no,1,543
11,79,CBA,no,1,551
11,80,ABA,no,1,851
11,81,ABA,no,1,591
11,82,CBA,yes,1,467
11,83,ABA,no,1,563
11,84,CBA,no,1,926
11,85,ABA,no,0,496
11,86,CBA,no,1,720
11,87,CBA,no,1,1002
11,88,CBA,no,1,772
11,89,CBA,no,1,1002
11,90,CBA,no,1,512
11,91,CBA,no,1,547
11,92,ABA,no,1,1924
11,93,CBA,yes,1,605
11,94,ABA,no,1,963
11,95,CBA,yes,1,461
11,96,ABA,no,1,807
11,97,ABA,no,1,563
11,98,CBA,yes,1,1028
11,99,ABA,yes,1,949
11,100,CBA,no,1,1101
11,101,CBA,no,1,555
11,102,CBA,yes,1,555
11,103,CBA,no,1,486
11,104,CBA,no,1,508
11,105,CBA,no,1,1098
11,106,ABA,yes,1,1151
11,107,ABA,no,1,841
11,108,CBA,no,1,554
11,109,ABA,no,1,531
11,110,CBA,no,1,576
11,111,ABA,no,1,655
11,112,ABA,no,1,855
11,113,CBA,no,1,563
11,114,ABA,no,1,1107
11,115,ABA,yes,1,1868
11,116,CBA,yes,1,601
11,117,CBA,no,1,534
11,118,ABA,no,1,633
11,119,ABA,yes,1,551
11,120,CBA,no,1,684
11,121,CBA,no,1,577
11,122,CBA,no,1,503
11,123,ABA,no,1,773
11,124,ABA,yes,1,547
11,125,CBA,no,1,614
11,126,ABA,no,1,615
11,127,ABA,no,1,717
11,128,ABA,no,1,852
11,129,CBA,no,1,491
11,130,ABA,no,1,556
11,131,ABA,no,1,653
11,132,ABA,yes,1,567
11,133,CBA,no,1,617
11,134,CBA,yes,1,571
11,135,ABA,yes,1,681
11,136,ABA,no,1,785
11,137,ABA,no,1,1125
11,138,ABA,no,1,890
11,139,CBA,yes,1,646
11,140,CBA,no,1,876
11,141,CBA,no,1,542
11,142,CBA,yes,1,596
11,143,ABA,no,0,373
11,144,CBA,yes,1,630
11,145,ABA,yes,1,1984
11,146,CBA,no,1,620
11,147,CBA,no,1,776
11,148,ABA,no,1,619
11,149,ABA,yes,1,547
11,150,CBA,no,1,797
11,151,CBA,no,1,529
11,152,ABA,no,1,953
11,153,CBA,no,1,729
11,154,ABA,no,1,808
11,155,ABA,no,1,646
11,156,ABA,no,0,488
11,157,ABA,yes,1,490
11,158,CBA,yes,1,673
11,159,CBA,yes,1,1340
11,160,CBA,no,0,934
11,161,CBA,no,1,1754
11,162,CBA,no,1,590
11,163,ABA,no,1,638
11,164,ABA,no,1,509
11,165,CBA,no,1,559
11,166,ABA,no,1,557
11,167,CBA,no,1,870
11,168,CBA,no,1,697
11,169,CBA,yes,1,571
11,170,CBA,yes,1,556
11,171,ABA,no,1,1230
11,172,ABA,no,1,581
11,173,ABA,no,1,618
11,174,ABA,no,1,505
11,175,CBA,no,1,636
11,176,CBA,no,1,719
11,177,CBA,no,1,530
11,178,ABA,yes,1,750
11,179,CBA,no,1,572
11,180,ABA,no,1,470
11,181,CBA,no,1,742
11,182,CBA,no,1,629
11,183,CBA,no,1,1613
11,184,CBA,no,1,485
11,185,CBA,yes,1,604
11,186,ABA,no,0,1022
11,187,ABA,no,1,712
11,188,ABA,no,1,1351
11,189,ABA,yes,1,1446
11,190,ABA,no,1,1101
11,191,ABA,yes,1,748
11,192,ABA,no,1,994
11,193,CBA,no,0,849
11,194,CBA,no,0,546
11,195,CBA,yes,1,1914
11,196,CBA,no,1,1422
11,197,CBA,no,1,759
11,198,ABA,no,1,1184
11,199,CBA,no,1,1014
11,200,ABA,no,1,1458
11,201,ABA,no,1,585
11,202,ABA,no,1,1040
11,203,ABA,yes,1,2204
11,204,ABA,yes,1,759
11,205,ABA,no,1,802
11,206,CBA,no,1,930
11,207,ABA,no,1,657
11,208,CBA,yes,1,746
11,209,ABA,no,1,567
11,210,CBA,no,1,623
11,211,ABA,no,1,629
11,212,ABA,no,1,619
11,213,ABA,no,1,808
11,214,CBA,yes,1,526
11,215,ABA,no,1,714
11,216,ABA,no,1,919
11,217,CBA,no,1,492
11,218,CBA,no,1,591
11,219,ABA,no,1,565
11,220,CBA,yes,1,518
11,221,ABA,no,1,1971
11,222,ABA,no,1,798
11,223,CBA,no,1,564
11,224,CBA,yes,0,420
11,225,CBA,yes,1,597
11,226,CBA,no,1,1185
11,227,CBA,no,1,1297
11,228,CBA,yes,1,767
11,229,ABA,no,1,678
11,230,ABA,yes,1,1862
11,231,CBA,no,1,1158
11,232,ABA,no,1,967
11,233,ABA,no,1,849
11,234,CBA,no,1,1058
11,235,ABA,no,1,876
11,236,ABA,no,1,1814
11,237,ABA,no,1,2103
11,238,CBA,no,1,1052
11,239,CBA,no,0,1819
11,240,ABA,yes,1,906
11,241,CBA,no,1,587
11,242,CBA,no,1,567
11,243,CBA,no,1,557
11,244,ABA,no,1,550
11,245,ABA,no,1,542
11,246,CBA,no,1,551
11,247,ABA,no,1,637
11,248,CBA,no,1,571
11,249,ABA,no,1,530
11,250,ABA,no,1,892
11,251,CBA,no,1,589
11,252,ABA,no,1,881
11,253,CBA,no,1,563
11,254,CBA,no,1,574
11,255,ABA,no,1,713
11,256,CBA,no,1,617
11,257,CBA,no,1,671
11,258,CBA,yes,1,731
11,259,ABA,yes,1,869
11,260,CBA,yes,1,640
11,261,CBA,no,1,695
11,262,ABA,yes,1,800
11,263,ABA,no,1,742
11,264,CBA,no,1,559
11,265,ABA,no,1,763
11,266,CBA,no,1,614
11,267,ABA,no,1,1184
11,268,CBA,no,1,627
11,269,ABA,no,1,617
11,270,ABA,no,1,921
11,271,ABA,yes,1,571
11,272,ABA,yes,1,821
11,273,CBA,no,1,556
11,274,CBA,no,0,874
11,275,ABA,no,1,1028
11,276,ABA,yes,1,1441
11,277,ABA,no,1,995
11,278,ABA,no,1,872
11,279,ABA,yes,1,591
11,280,ABA,no,1,997
11,281,ABA,no,1,645
11,282,CBA,no,1,554
11,283,ABA,no,1,553
11,284,ABA,yes,1,695
11,285,ABA,yes,1,626
11,286,ABA,no,1,1149
11,287,CBA,yes,1,586
11,288,CBA,yes,1,726
11,289,CBA,yes,1,800
11,290,CBA,no,1,1116
11,291,CBA,no,1,679
11,292,CBA,yes,1,512
11,293,CBA,no,1,606
11,294,ABA,no,0,675
11,295,ABA,yes,1,497
11,296,CBA,no,1,2026
11,297,CBA,no,1,618
11,298,ABA,yes,1,576
11,299,ABA,no,1,548
11,300,ABA,no,1,1234
11,301,ABA,no,1,801
11,302,CBA,no,1,723
11,303,CBA,yes,1,507
11,304,ABA,yes,1,615
11,305,CBA,yes,1,468
11,306,CBA,no,1,549
11,307,CBA,no,1,616
11,308,CBA,no,1,573
11,309,ABA,no,1,1483
11,310,ABA,no,1,820
11,311,ABA,no,1,687
11,312,CBA,no,1,548
11,313,ABA,yes,1,581
11,314,CBA,yes,1,927
11,315,CBA,no,1,789
11,316,ABA,no,1,757
11,317,CBA,yes,1,1093
11,318,CBA,no,1,1038
11,319,ABA,yes,1,1202
11,320,ABA,yes,1,616
11,321,ABA,yes,1,541
11,322,CBA,no,1,632
11,323,CBA,no,1,720
11,324,CBA,no,1,2205
11,325,CBA,yes,1,871
11,326,ABA,no,1,624
11,327,ABA,no,1,529
11,328,ABA,yes,1,754
11,329,ABA,no,1,704
11,330,ABA,no,1,1139
11,331,CBA,yes,1,554
11,332,ABA,no,0,1321
11,333,ABA,no,1,617
11,334,ABA,yes,1,930
11,335,CBA,no,1,516
11,336,ABA,no,1,1510
11,337,ABA,no,1,629
11,338,ABA,no,1,608
11,339,ABA,no,1,922
11,340,CBA,no,1,751
11,341,CBA,yes,1,784
11,342,CBA,no,1,567
11,343,CBA,no,1,1257
11,344,ABA,no,1,558
11,345,CBA,no,1,541
11,346,ABA,yes,1,586
11,347,CBA,yes,1,577
11,348,ABA,no,1,1053
11,349,CBA,yes,1,482
11,350,ABA,no,1,1100
11,351,CBA,no,1,584
11,352,CBA,yes,1,668
11,353,ABA,no,1,2320
11,354,ABA,no,1,585
11,355,CBA,no,1,499
11,356,CBA,no,1,565
11,357,CBA,no,0,409
11,358,CBA,no,1,661
11,359,ABA,no,0,791
11,360,ABA,no,1,578
11,361,ABA,no,1,656
11,362,ABA,no,1,605
11,363,ABA,no,1,815
11,364,CBA,yes,1,631
11,365,ABA,yes,1,626
11,366,ABA,no,1,771
11,367,CBA,no,1,572
11,368,CBA,no,1,515
11,369,ABA,yes,1,497
11,370,ABA,no,1,1540
11,371,CBA,no,1,805
11,372,CBA,no,1,1286
11,373,CBA,no,1,750
11,374,CBA,yes,1,551
11,375,ABA,no,1,586
11,376,CBA,yes,1,550
11,377,CBA,yes,1,1042
11,378,CBA,yes,1,599
11,379,CBA,no,1,894
11,380,CBA,no,1,755
11,381,ABA,yes,1,452
11,382,ABA,no,1,708
11,383,ABA,no,1,1981
11,384,CBA,yes,1,600
11,385,ABA,no,1,1228
11,386,ABA,yes,1,583
11,387,CBA,no,1,585
11,388,CBA,no,1,515
11,389,ABA,no,0,351
11,390,ABA,no,1,1111
11,391,CBA,no,0,570
11,392,ABA,no,1,933
11,393,CBA,no,1,1197
11,394,ABA,no,0,906
11,395,CBA,no,1,566
11,396,ABA,no,1,776
11,397,CBA,no,1,640
11,398,ABA,no,1,591
11,399,ABA,no,1,674
11,400,CBA,no,1,1553
11,401,ABA,no,1,656
11,402,ABA,no,1,539
11,403,CBA,no,1,660
11,404,CBA,no,1,518
11,405,CBA,yes,1,1057
11,406,CBA,yes,1,912
11,407,ABA,no,1,664
11,408,ABA,no,1,1386
11,409,ABA,no,1,615
11,410,CBA,no,1,591
11,411,ABA,no,1,1095
11,412,ABA,no,1,606
11,413,CBA,no,1,578
11,414,ABA,no,1,561
11,415,ABA,yes,1,543
11,416,CBA,no,1,706
11,417,CBA,no,1,792
11,418,CBA,yes,1,621
11,419,ABA,no,0,1249
11,420,CBA,no,1,627
11,421,CBA,no,1,1157
11,422,ABA,no,1,616
11,423,CBA,no,1,552
11,424,CBA,yes,1,793
11,425,ABA,yes,1,526
11,426,ABA,no,1,987
11,427,CBA,no,0,539
11,428,ABA,no,1,704
11,429,CBA,no,1,586
11,430,CBA,no,1,1700
11,431,CBA,no,1,653
11,432,CBA,no,1,632
11,433,CBA,no,1,669
11,434,ABA,no,1,1326
11,435,CBA,no,1,494
11,436,ABA,no,1,864
11,437,CBA,yes,0,820
11,438,ABA,no,1,2260
11,439,CBA,no,1,678
11,440,CBA,no,1,659
11,441,CBA,no,1,616
11,442,ABA,no,1,1034
11,443,ABA,no,1,701
11,444,CBA,yes,1,502
11,445,CBA,no,1,695
11,446,ABA,no,1,596
11,447,ABA,yes,1,557
11,448,CBA,yes,1,591
11,449,ABA,no,1,1188
11,450,CBA,no,1,641
11,451,ABA,no,1,1669
11,452,CBA,no,1,1213
11,453,CBA,no,1,984
11,454,CBA,yes,1,854
11,455,CBA,no,1,683
11,456,CBA,no,1,932
11,457,ABA,no,1,1109
11,458,CBA,no,1,765
11,459,ABA,no,1,622
11,460,ABA,no,1,966
11,461,CBA,no,1,721
11,462,ABA,no,1,1925
11,463,CBA,yes,1,855
11,464,ABA,no,1,969
11,465,ABA,no,1,1642
11,466,CBA,no,1,616
11,467,ABA,no,1,657
11,468,CBA,no,1,604
11,469,ABA,yes,1,948
11,470,CBA,no,1,805
11,471,CBA,no,1,708
11,472,CBA,no,1,742
11,473,ABA,yes,1,1124
11,474,ABA,yes,1,622
11,475,ABA,no,1,1543
11,476,ABA,yes,1,580
11,477,ABA,no,1,650
11,478,ABA,no,1,1100
11,479,ABA,no,1,797
11,480,CBA,no,1,876
12,1,CBA,no,1,1172
12,2,ABA,no,1,655
12,3,CBA,yes,1,687
12,4,ABA,no,1,803
12,5,CBA,no,1,697
12,6,CBA,no,1,815
12,7,ABA,no,1,737
12,8,ABA,no,1,702
12,9,CBA,yes,1,670
12,10,ABA,no,1,772
12,11,ABA,no,1,1102
12,12,CBA,no,1,848
12,13,ABA,no,1,827
12,14,CBA,yes,1,727
12,15,ABA,no,1,1194
12,16,ABA,yes,1,687
12,17,ABA,no,1,946
12,18,CBA,no,1,860
12,19,CBA,no,1,710
12,20,ABA,no,1,747
12,21,ABA,no,1,938
12,22,CBA,no,1,745
12,23,ABA,no,1,924
12,24,CBA,no,1,632
12,25,ABA,yes,1,800
12,26,CBA,no,1,694
12,27,CBA,no,1,684
12,28,CBA,no,1,670
12,29,CBA,no,1,733
12,30,ABA,no,1,1108
12,31,CBA,no,1,700
12,32,ABA,yes,1,810
12,33,ABA,no,1,735
12,34,ABA,no,1,662
12,35,ABA,no,1,772
12,36,CBA,yes,1,642
12,37,ABA,no,1,679
12,38,ABA,yes,1,984
12,39,CBA,no,1,715
12,40,CBA,no,1,816
12,41,CBA,no,1,657
12,42,CBA,yes,1,615
12,43,ABA,yes,1,778
12,44,CBA,no,1,883
12,45,CBA,no,1,1335
12,46,ABA,no,1,1102
12,47,ABA,no,1,640
12,48,CBA,no,1,629
12,49,ABA,no,1,919
12,50,ABA,yes,1,633
12,51,CBA,no,1,576
12,52,ABA,no,1,1038
12,53,CBA,no,1,728
12,54,CBA,no,1,600
12,55,CBA,yes,1,764
12,56,ABA,no,1,918
12,57,ABA,yes,1,604
12,58,CBA,yes,1,1515
12,59,ABA,no,1,813
12,60,CBA,no,1,586
12,61,CBA,yes,1,497
12,62,ABA,no,1,571
12,63,CBA,no,1,628
12,64,ABA,no,1,490
12,65,ABA,no,1,573
12,66,ABA,no,1,538
12,67,ABA,no,1,687
12,68,ABA,no,1,696
12,69,ABA,no,1,660
12,70,ABA,yes,1,543
12,71,ABA,no,1,506
12,72,CBA,yes,1,634
12,73,CBA,no,1,497
12,74,ABA,no,1,783
12,75,ABA,yes,1,531
12,76,ABA,yes,1,532
12,77,CBA,no,1,644
12,78,CBA,yes,1,628
12,79,ABA,yes,1,820
12,80,CBA,yes,1,531
12,81,ABA,no,1,1029
12,82,CBA,yes,1,723
12,83,ABA,no,1,605
12,84,CBA,no,1,679
12,85,CBA,no,1,579
12,86,ABA,no,1,736
12,87,CBA,no,1,619
12,88,CBA,no,1,654
12,89,CBA,no,1,1238
12,90,ABA,no,1,607
12,91,ABA,no,1,882
12,92,CBA,no,1,532
12,93,CBA,no,1,685
12,94,ABA,no,1,707
12,95,ABA,no,1,551
12,96,ABA,yes,1,767
12,97,CBA,yes,1,569
12,98,ABA,no,1,809
12,99,CBA,yes,1,1187
12,100,CBA,yes,1,439
12,101,ABA,no,1,680
12,102,ABA,no,1,955
12,103,ABA,no,1,532
12,104,ABA,no,1,595
12,105,ABA,yes,1,827
12,106,ABA,no,1,1399
12,107,CBA,yes,1,549
12,108,ABA,no,1,574
12,109,CBA,yes,1,978
12,110,ABA,yes,1,712
12,111,ABA,no,1,1057
12,112,CBA,no,1,1287
12,113,CBA,no,1,1133
12,114,CBA,no,1,575
12,115,CBA,no,1,555
12,116,CBA,no,1,598
12,117,ABA,no,1,575
12,118,ABA,yes,1,840
12,119,CBA,no,1,477
12,120,ABA,no,1,520
12,121,ABA,no,1,539
12,122,CBA,no,1,543
12,123,CBA,no,1,519
12,124,ABA,yes,1,617
12,125,CBA,yes,1,523
12,126,CBA,no,1,579
12,127,CBA,yes,1,719
12,128,CBA,no,1,703
12,129,CBA,no,1,988
12,130,CBA,no,1,767
12,131,ABA,no,1,656
12,132,ABA,yes,1,612
12,133,ABA,yes,1,741
12,134,ABA,yes,1,875
12,135,ABA,no,1,1329
12,136,ABA,yes,1,737
12,137,ABA,yes,1,703
12,138,ABA,no,1,1172
12,139,CBA,yes,1,1025
12,140,CBA,yes,1,617
12,141,CBA,yes,1,733
12,142,CBA,no,1,794
12,143,CBA,yes,1,745
12,144,ABA,no,1,646
12,145,ABA,no,1,2118
12,146,ABA,no,1,906
12,147,CBA,no,1,1203
12,148,CBA,no,1,561
12,149,ABA,no,1,654
12,150,ABA,no,1,689
12,151,CBA,no,1,649
12,152,ABA,yes,1,605
12,153,ABA,yes,1,641
12,154,CBA,no,1,595
12,155,CBA,no,1,805
12,156,CBA,no,1,937
12,157,ABA,no,1,703
12,158,ABA,no,1,1423
12,159,ABA,yes,1,1218
12,160,ABA,no,1,916
12,161,ABA,no,1,603
12,162,CBA,no,1,1021
12,163,CBA,no,1,660
12,164,CBA,no,1,691
12,165,CBA,no,1,1260
12,166,ABA,no,1,492
12,167,ABA,no,1,1070
12,168,CBA,no,1,820
12,169,CBA,no,1,690
12,170,CBA,no,1,999
12,171,CBA,no,1,1244
12,172,ABA,no,1,549
12,173,CBA,no,1,635
12,174,CBA,yes,1,544
12,175,ABA,no,1,634
12,176,CBA,no,1,569
12,177,CBA,no,1,518
12,178,CBA,no,1,672
12,179,ABA,no,1,604
12,180,CBA,no,1,737
12,181,CBA,no,1,1180
12,182,ABA,no,1,826
12,183,CBA,yes,1,487
12,184,CBA,no,1,575
12,185,ABA,no,1,618
12,186,ABA,no,1,615
12,187,ABA,no,1,644
12,188,CBA,no,1,922
12,189,ABA,no,1,664
12,190,ABA,no,1,573
12,191,ABA,no,1,719
12,192,CBA,no,1,803
12,193,CBA,no,1,582
12,194,CBA,no,1,614
12,195,ABA,no,1,990
12,196,CBA,no,1,652
12,197,ABA,yes,1,741
12,198,CBA,no,1,572
12,199,ABA,no,0,893
12,200,ABA,yes,1,1382
12,201,CBA,no,1,1094
12,202,ABA,no,1,1063
12,203,CBA,no,1,800
12,204,ABA,yes,1,1138
12,205,CBA,no,1,674
12,206,ABA,no,1,757
12,207,CBA,no,1,782
12,208,CBA,no,1,729
12,209,ABA,no,1,1750
12,210,CBA,yes,1,641
12,211,ABA,no,1,960
12,212,CBA,yes,1,647
12,213,ABA,no,1,814
12,214,CBA,no,1,768
12,215,CBA,yes,1,819
12,216,ABA,no,1,1388
12,217,CBA,no,1,1582
12,218,ABA,no,1,897
12,219,CBA,no,1,1872
12,220,CBA,yes,1,779
12,221,ABA,no,1,712
12,222,CBA,no,1,1715
12,223,CBA,no,1,2023
12,224,ABA,yes,1,1109
12,225,CBA,no,1,590
12,226,ABA,yes,1,958
12,227,CBA,no,1,612
12,228,ABA,no,1,1017
12,229,CBA,no,1,714
12,230,ABA,yes,1,954
12,231,ABA,no,0,910
12,232,ABA,yes,1,1071
12,233,CBA,no,1,550
12,234,ABA,no,1,659
12,235,CBA,no,1,895
12,236,CBA,yes,1,683
12,237,CBA,no,1,706
12,238,CBA,no,1,1153
12,239,CBA,no,1,1240
12,240,CBA,no,1,1050
12,241,ABA,no,1,679
12,242,CBA,yes,1,589
12,243,CBA,no,1,590
12,244,ABA,no,1,866
12,245,ABA,no,1,1005
12,246,CBA,no,1,512
12,247,CBA,no,1,611
12,248,ABA,no,1,1165
12,249,ABA,yes,1,684
12,250,ABA,no,1,776
12,251,ABA,no,1,1032
12,252,CBA,no,1,612
12,253,CBA,yes,1,853
12,254,CBA,no,1,714
12,255,ABA,no,1,728
12,256,ABA,yes,1,983
12,257,CBA,yes,1,649
12,258,CBA,no,1,551
12,259,ABA,no,1,748
12,260,CBA,no,1,663
12,261,CBA,no,1,824
12,262,ABA,no,1,614
12,263,ABA,no,1,633
12,264,ABA,no,1,675
12,265,ABA,no,1,740
12,266,CBA,no,1,655
12,267,CBA,no,1,805
12,268,ABA,no,1,1091
12,269,CBA,no,1,696
12,270,CBA,no,1,1131
12,271,ABA,no,1,991
12,272,ABA,yes,1,602
12,273,ABA,no,1,1244
12,274,ABA,no,1,913
12,275,ABA,yes,1,1898
12,276,CBA,no,1,676
12,277,ABA,yes,1,1431
12,278,CBA,no,1,533
12,279,CBA,no,1,510
12,280,CBA,no,1,712
12,281,CBA,no,1,817
12,282,ABA,no,1,954
12,283,CBA,no,1,626
12,284,ABA,no,1,926
12,285,CBA,no,1,484
12,286,ABA,yes,1,1515
12,287,CBA,no,1,1478
12,288,ABA,no,1,939
12,289,ABA,yes,1,709
12,290,ABA,no,1,828
12,291,ABA,no,1,704
12,292,CBA,no,1,733
12,293,ABA,no,1,620
12,294,CBA,no,1,539
12,295,CBA,no,1,570
12,296,ABA,no,1,765
12,297,CBA,yes,1,868
12,298,ABA,yes,1,693
12,299,ABA,yes,1,1424
12,300,CBA,no,1,611
12,301,CBA,no,1,575
12,302,CBA,no,1,678
12,303,CBA,no,1,694
12,304,ABA,no,1,812
12,305,ABA,no,1,732
12,306,ABA,no,1,693
12,307,ABA,yes,1,680
12,308,ABA,no,1,1072
12,309,CBA,no,1,979
12,310,ABA,yes,1,845
12,311,CBA,yes,1,719
12,312,ABA,no,1,652
12,313,ABA,no,1,590
12,314,ABA,no,1,602
12,315,CBA,no,1,1188
12,316,ABA,no,1,623
12,317,CBA,no,1,566
12,318,ABA,yes,1,601
12,319,CBA,no,1,918
12,320,CBA,no,1,684
12,321,CBA,no,1,729
12,322,ABA,no,1,630
12,323,CBA,yes,1,711
12,324,ABA,no,1,679
12,325,ABA,no,1,820
12,326,ABA,yes,1,623
12,327,ABA,no,1,576
12,328,ABA,no,1,655
12,329,ABA,yes,1,734
12,330,ABA,no,1,766
12,331,ABA,no,1,835
12,332,ABA,no,1,732
12,333,CBA,no,1,641
12,334,ABA,no,1,625
12,335,ABA,no,1,776
12,336,ABA,yes,1,623
12,337,ABA,no,1,1464
12,338,CBA,no,1,588
12,339,ABA,yes,1,909
12,340,CBA,no,1,482
12,341,ABA,no,1,732
12,342,ABA,no,1,651
12,343,ABA,no,1,720
12,344,ABA,no,1,607
12,345,ABA,no,1,708
12,346,CBA,yes,1,896
12,347,ABA,yes,1,983
12,348,ABA,no,1,529
12,349,ABA,no,1,631
12,350,ABA,no,1,1008
12,351,ABA,no,1,745
12,352,CBA,no,1,705
12,353,ABA,yes,1,806
12,354,CBA,no,1,706
12,355,ABA,no,1,690
12,356,CBA,no,1,682
12,357,CBA,no,1,781
12,358,CBA,no,1,771
12,359,CBA,no,1,2018
12,360,ABA,yes,1,2044
12,361,ABA,yes,1,697
12,362,ABA,no,1,539
12,363,ABA,no,1,508
12,364,ABA,no,1,549
12,365,CBA,no,1,521
12,366,ABA,no,1,673
12,367,ABA,yes,1,533
12,368,CBA,no,1,522
12,369,CBA,no,1,986
12,370,ABA,no,1,688
12,371,ABA,no,1,667
12,372,ABA,yes,1,488
12,373,ABA,yes,1,683
12,374,CBA,yes,1,900
12,375,CBA,no,1,560
12,376,CBA,no,1,611
12,377,ABA,yes,1,596
12,378,CBA,no,1,616
12,379,CBA,no,1,664
12,380,CBA,no,1,921
12,381,CBA,yes,1,1087
12,382,CBA,yes,1,526
12,383,CBA,no,1,671
12,384,ABA,no,1,687
12,385,ABA,yes,1,1302
12,386,ABA,no,1,643
12,387,ABA,yes,1,561
12,388,ABA,yes,1,666
12,389,CBA,no,1,496
12,390,CBA,no,1,586
12,391,CBA,yes,1,672
12,392,CBA,no,1,704
12,393,CBA,yes,1,555
12,394,ABA,no,1,523
12,395,CBA,yes,1,504
12,396,CBA,no,1,1188
12,397,ABA,no,1,670
12,398,CBA,no,1,927
12,399,ABA,yes,1,967
12,400,ABA,no,1,662
12,401,CBA,no,1,551
12,402,ABA,yes,1,670
12,403,ABA,no,1,649
12,404,ABA,no,1,1840
12,405,CBA,no,1,673
12,406,CBA,no,1,613
12,407,CBA,no,1,745
12,408,CBA,no,1,516
12,409,CBA,yes,1,557
12,410,CBA,no,1,841
12,411,ABA,yes,1,642
12,412,ABA,yes,1,760
12,413,CBA,no,1,561
12,414,CBA,no,1,968
12,415,ABA,no,1,950
12,416,ABA,no,1,1422
12,417,ABA,yes,1,640
12,418,ABA,no,1,1113
12,419,CBA,no,1,745
12,420,ABA,no,1,710
12,421,ABA,no,1,1268
12,422,ABA,no,1,905
12,423,CBA,yes,1,535
12,424,CBA,yes,1,761
12,425,CBA,yes,1,1421
12,426,CBA,yes,1,588
12,427,ABA,no,1,1366
12,428,ABA,no,1,716
12,429,ABA,no,1,1148
12,430,ABA,no,1,588
12,431,CBA,no,1,568
12,432,CBA,no,1,730
12,433,ABA,yes,1,533
12,434,ABA,no,1,680
12,435,CBA,yes,1,704
12,436,ABA,no,1,2142
12,437,CBA,no,1,914
12,438,ABA,no,1,576
12,439,CBA,no,1,651
12,440,CBA,yes,1,1370
12,441,CBA,no,1,809
12,442,CBA,no,1,634
12,443,CBA,no,1,1077
12,444,CBA,no,1,614
12,445,ABA,no,1,714
12,446,ABA,no,1,678
12,447,ABA,no,1,595
12,448,ABA,no,1,652
12,449,ABA,no,1,657
12,450,CBA,yes,1,687
12,451,ABA,no,1,614
12,452,ABA,no,1,1091
12,453,CBA,yes,1,518
12,454,ABA,no,1,735
12,455,CBA,no,1,661
12,456,CBA,yes,1,3903
12,457,CBA,no,1,699
12,458,CBA,no,1,1024
12,459,ABA,no,1,890
12,460,CBA,no,1,718
12,461,ABA,no,1,596
12,462,CBA,no,1,840
12,463,ABA,no,1,746
12,464,CBA,yes,1,562
12,465,ABA,no,1,886
12,466,CBA,no,1,711
12,467,ABA,no,1,621
12,468,CBA,no,1,1881
12,469,ABA,no,1,1032
12,470,CBA,no,1,826
12,471,CBA,no,1,1037
12,472,CBA,yes,1,812
12,473,CBA,no,1,544
12,474,CBA,no,1,681
12,475,ABA,no,1,653
12,476,CBA,no,1,578
12,477,ABA,no,1,700
12,478,CBA,yes,1,511
12,479,ABA,no,1,629
12,480,CBA,no,1,619
13,1,CBA,no,1,696
13,2,ABA,no,1,1127
13,3,CBA,no,1,1032
13,4,CBA,no,1,821
13,5,ABA,no,0,1749
13,6,CBA,no,1,1322
13,7,ABA,no,1,994
13,8,CBA,no,1,880
13,9,ABA,yes,1,1437
13,10,CBA,no,0,960
13,11,CBA,no,1,2029
13,12,CBA,no,1,1044
13,13,CBA,no,1,1101
13,14,CBA,yes,1,1333
13,15,CBA,no,1,1266
13,16,ABA,no,1,1659
13,17,ABA,no,1,1282
13,18,CBA,no,1,4310
13,19,CBA,no,1,2381
13,20,ABA,no,1,1735
13,21,ABA,no,1,1264
13,22,CBA,no,1,1310
13,23,CBA,yes,0,1288
13,24,ABA,no,1,2452
13,25,ABA,no,0,1526
13,26,ABA,no,1,3143
13,27,CBA,no,1,1132
13,28,ABA,yes,1,868
13,29,ABA,no,1,1211
13,30,CBA,no,1,1288
13,31,CBA,no,1,1452
13,32,ABA,no,1,1506
13,33,CBA,no,1,919
13,34,ABA,yes,1,2994
13,35,CBA,no,1,1366
13,36,CBA,no,1,1225
13,37,ABA,yes,0,2447
13,38,CBA,no,0,1603
13,39,ABA,no,1,5437
13,40,ABA,no,1,1612
13,41,ABA,no,1,1020
13,42,ABA,no,1,1526
13,43,CBA,no,1,1002
13,44,CBA,yes,1,939
13,45,CBA,no,1,2420
13,46,CBA,no,1,1070
13,47,ABA,no,1,2077
13,48,CBA,no,1,1888
13,49,ABA,yes,1,962
13,50,ABA,no,0,806
13,51,CBA,no,1,1630
13,52,ABA,yes,1,1177
13,53,CBA,yes,0,1136
13,54,CBA,yes,1,1712
13,55,ABA,yes,1,1926
13,56,ABA,no,1,2259
13,57,ABA,no,1,1997
13,58,ABA,no,1,1600
13,59,ABA,no,1,2624
13,60,ABA,no,1,1506
13,61,ABA,no,1,4459
13,62,ABA,yes,1,1121
13,63,CBA,yes,1,1439
13,64,ABA,no,1,3650
13,65,ABA,no,0,1765
13,66,CBA,no,1,2491
13,67,ABA,yes,0,1003
13,68,CBA,no,1,2278
13,69,ABA,no,1,1916
13,70,ABA,no,1,1901
13,71,CBA,yes,1,1978
13,72,ABA,no,1,1117
13,73,ABA,no,1,1268
13,74,CBA,no,1,1851
13,75,CBA,no,0,766
13,76,CBA,yes,1,2766
13,77,CBA,no,1,1365
13,78,CBA,yes,1,1058
13,79,CBA,no,1,1445
13,80,CBA,no,1,1594
13,81,ABA,no,0,1252
13,82,CBA,no,1,858
13,83,CBA,yes,1,1404
13,84,CBA,no,1,824
13,85,CBA,no,1,740
13,86,ABA,no,1,1082
13,87,ABA,no,1,1314
13,88,CBA,no,1,2925
13,89,CBA,no,1,1825
13,90,ABA,no,0,1266
13,91,CBA,no,1,1290
13,92,CBA,no,1,1289
13,93,ABA,yes,1,1366
13,94,CBA,no,0,1852
13,95,CBA,no,1,1038
13,96,CBA,yes,1,1136
13,97,CBA,no,0,1594
13,98,ABA,yes,1,1250
13,99,ABA,no,1,1455
13,100,ABA,yes,0,1012
13,101,CBA,no,1,2895
13,102,ABA,no,1,934
13,103,ABA,no,1,1080
13,104,ABA,no,1,1090
13,105,CBA,no,1,1256
13,106,CBA,no,1,1505
13,107,CBA,no,1,1636
13,108,CBA,no,1,1260
13,109,CBA,yes,1,1729
13,110,CBA,yes,0,1389
13,111,ABA,yes,1,3429
13,112,CBA,no,0,2551
13,113,CBA,no,1,2059
13,114,CBA,no,1,1837
13,115,ABA,no,1,1126
13,116,CBA,no,1,1814
13,117,ABA,yes,1,1176
13,118,ABA,yes,1,1567
13,119,CBA,no,1,1793
13,120,ABA,no,0,844
13,121,ABA,no,1,1511
13,122,ABA,yes,1,708
13,123,ABA,no,1,1239
13,124,CBA,no,1,824
13,125,ABA,no,1,1819
13,126,ABA,yes,1,1055
13,127,CBA,yes,1,780
13,128,CBA,no,1,1979
13,129,ABA,yes,1,1506
13,130,CBA,no,1,980
13,131,CBA,no,1,1342
13,132,CBA,no,0,896
13,133,CBA,yes,1,2917
13,134,CBA,no,1,2237
13,135,ABA,no,1,1162
13,136,CBA,no,1,1632
13,137,CBA,yes,1,1134
13,138,ABA,no,1,2647
13,139,CBA,yes,1,1322
13,140,ABA,yes,1,969
13,141,ABA,no,1,1209
13,142,CBA,no,1,1175
13,143,ABA,yes,1,1143
13,144,ABA,no,1,951
13,145,CBA,yes,1,1804
13,146,ABA,no,1,2300
13,147,CBA,no,1,969
13,148,CBA,no,1,3092
13,149,CBA,no,0,1613
13,150,ABA,yes,1,1936
13,151,CBA,yes,1,1221
13,152,CBA,yes,1,870
13,153,ABA,yes,1,1408
13,154,CBA,no,1,1448
13,155,CBA,no,1,2302
13,156,CBA,no,1,1539
13,157,ABA,no,1,3314
13,158,CBA,no,1,1435
13,159,ABA,no,1,2318
13,160,ABA,no,1,1695
13,161,CBA,no,1,916
13,162,ABA,no,1,2155
13,163,ABA,no,1,966
13,164,CBA,yes,0,2351
13,165,CBA,yes,1,4927
13,166,ABA,yes,1,2846
13,167,CBA,no,1,746
13,168,CBA,yes,1,2861
13,169,ABA,no,1,1993
13,170,CBA,yes,1,3027
13,171,ABA,no,1,817
13,172,ABA,no,1,1251
13,173,CBA,yes,1,1185
13,174,CBA,no,1,990
13,175,CBA,no,1,1878
13,176,ABA,no,1,2080
13,177,CBA,no,1,801
13,178,CBA,no,1,2285
13,179,ABA,no,1,1148
13,180,ABA,no,1,1778
13,181,ABA,no,1,1316
13,182,CBA,no,1,960
13,183,CBA,no,1,1821
13,184,CBA,yes,1,1532
13,185,ABA,no,1,1934
13,186,ABA,yes,1,1568
13,187,CBA,no,1,1003
13,188,CBA,no,1,2543
13,189,ABA,no,1,993
13,190,CBA,no,1,1093
13,191,ABA,no,1,1133
13,192,CBA,no,1,3187
13,193,CBA,yes,1,921
13,194,ABA,no,1,1544
13,195,CBA,yes,1,1111
13,196,ABA,no,1,2141
13,197,CBA,no,1,911
13,198,ABA,no,1,2490
13,199,CBA,no,1,954
13,200,ABA,no,1,1072
13,201,CBA,no,1,1138
13,202,CBA,no,1,1207
13,203,CBA,no,1,2919
13,204,ABA,yes,1,1325
13,205,CBA,no,1,1011
13,206,CBA,no,1,1997
13,207,ABA,no,1,1306
13,208,ABA,yes,1,1596
13,209,CBA,no,1,854
13,210,CBA,no,0,2306
13,211,ABA,yes,1,2307
13,212,ABA,yes,1,1828
13,213,CBA,no,1,1214
13,214,ABA,no,0,774
13,215,ABA,no,1,4301
13,216,ABA,no,1,816
13,217,ABA,no,1,2585
13,218,ABA,yes,1,814
13,219,ABA,no,1,952
13,220,CBA,no,1,1276
13,221,ABA,yes,1,2306
13,222,CBA,no,1,1287
13,223,CBA,no,1,759
13,224,CBA,no,1,2067
13,225,CBA,no,1,1168
13,226,CBA,yes,1,1516
13,227,CBA,no,1,1847
13,228,CBA,yes,1,3239
13,229,ABA,yes,1,1132
13,230,ABA,no,1,1738
13,231,CBA,no,1,1032
13,232,CBA,yes,1,915
13,233,ABA,no,1,993
13,234,ABA,no,1,1571
13,235,CBA,yes,1,1497
13,236,ABA,yes,1,3764
13,237,ABA,no,1,1279
13,238,ABA,yes,1,788
13,239,ABA,no,1,1365
13,240,CBA,yes,1,765
13,241,ABA,no,1,2337
13,242,ABA,yes,1,726
13,243,ABA,no,1,893
13,244,ABA,no,1,1135
13,245,ABA,no,1,1195
13,246,CBA,no,1,1492
13,247,CBA,yes,1,1350
13,248,ABA,no,1,2549
13,249,ABA,no,1,1157
13,250,CBA,no,1,1143
13,251,ABA,yes,1,1627
13,252,ABA,no,1,906
13,253,ABA,no,0,1161
13,254,ABA,no,1,1718
13,255,CBA,no,1,1581
13,256,ABA,no,1,1124
13,257,ABA,no,1,1131
13,258,CBA,no,1,1878
13,259,ABA,no,1,2282
13,260,ABA,yes,1,802
13,261,ABA,no,1,1646
13,262,ABA,no,1,1584
13,263,ABA,no,1,1202
13,264,CBA,no,1,1414
13,265,CBA,no,1,807
13,266,ABA,no,1,1212
13,267,ABA,yes,1,794
13,268,ABA,no,1,2470
13,269,ABA,yes,1,1585
13,270,CBA,no,1,882
13,271,ABA,no,1,1007
13,272,ABA,yes,1,1196
13,273,ABA,yes,1,757
13,274,CBA,yes,0,797
13,275,ABA,no,1,3976
13,276,CBA,no,1,946
13,277,ABA,no,1,842
13,278,ABA,no,1,1063
13,279,ABA,no,1,1502
13,280,ABA,no,1,896
13,281,CBA,no,1,1119
13,282,CBA,yes,1,1505
13,283,CBA,no,1,2107
13,284,CBA,no,1,1321
13,285,CBA,yes,1,704
13,286,CBA,no,1,781
13,287,CBA,no,1,2259
13,288,ABA,yes,0,1535
13,289,ABA,no,1,1321
13,290,CBA,yes,1,1166
13,291,CBA,yes,1,1130
13,292,CBA,no,1,1693
13,293,ABA,no,1,1505
13,294,ABA,no,1,1097
13,295,CBA,no,1,1447
13,296,CBA,yes,1,2433
13,297,ABA,no,1,1786
13,298,ABA,yes,1,2992
13,299,ABA,no,1,1419
13,300,ABA,no,1,3016
13,301,CBA,no,1,1630
13,302,ABA,yes,1,1094
13,303,ABA,no,1,1104
13,304,ABA,no,1,2060
13,305,ABA,no,1,2798
13,306,CBA,yes,1,1297
13,307,CBA,no,1,1829
13,308,ABA,yes,1,1556
13,309,ABA,yes,1,1621
13,310,ABA,no,1,1141
13,311,CBA,no,0,1662
13,312,ABA,no,1,1666
13,313,ABA,yes,1,3340
13,314,ABA,yes,1,1418
13,315,CBA,no,1,798
13,316,ABA,no,1,909
13,317,ABA,no,1,881
13,318,CBA,no,1,1154
13,319,CBA,no,1,967
13,320,ABA,yes,1,671
13,321,ABA,yes,1,818
13,322,CBA,no,1,896
13,323,ABA,no,1,1611
13,324,CBA,no,1,1772
13,325,ABA,no,0,923
13,326,ABA,yes,1,732
13,327,ABA,no,1,1053
13,328,ABA,no,1,1524
13,329,CBA,no,1,1617
13,330,CBA,yes,1,2442
13,331,ABA,no,1,889
13,332,ABA,no,0,818
13,333,CBA,no,1,1533
13,334,ABA,no,0,1167
13,335,CBA,no,1,1082
13,336,CBA,no,1,1505
13,337,CBA,no,1,639
13,338,CBA,no,1,2588
13,339,CBA,no,0,2910
13,340,ABA,no,0,1173
13,341,ABA,no,1,2427
13,342,CBA,yes,1,1525
13,343,ABA,no,1,2928
13,344,CBA,no,0,791
13,345,CBA,yes,1,735
13,346,ABA,no,1,1372
13,347,CBA,no,1,1343
13,348,ABA,no,1,1266
13,349,ABA,no,1,1182
13,350,CBA,no,1,1130
13,351,ABA,yes,1,2658
13,352,CBA,no,1,1216
13,353,CBA,no,1,822
13,354,CBA,no,1,815
13,355,ABA,yes,1,1402
13,356,CBA,no,1,2522
13,357,CBA,no,1,3187
13,358,CBA,yes,1,1168
13,359,CBA,yes,1,1859
13,360,CBA,no,1,1079
13,361,ABA,no,1,1271
13,362,ABA,no,0,741
13,363,CBA,no,1,767
13,364,CBA,no,1,3120
13,365,ABA,no,1,841
13,366,CBA,no,1,959
13,367,CBA,no,0,2886
13,368,CBA,no,1,1483
13,369,ABA,no,1,2946
13,370,CBA,no,1,876
13,371,CBA,no,1,1496
13,372,CBA,no,1,1154
13,373,CBA,no,1,1913
13,374,ABA,no,1,2008
13,375,CBA,no,1,1263
13,376,ABA,no,1,1557
13,377,ABA,no,1,1809
13,378,CBA,no,1,3265
13,379,CBA,yes,1,1075
13,380,ABA,yes,1,763
13,381,CBA,no,1,880
13,382,ABA,no,1,1757
13,383,CBA,no,1,1363
13,384,CBA,no,1,1202
13,385,ABA,no,1,1040
13,386,ABA,no,1,1034
13,387,CBA,no,1,2001
13,388,ABA,no,1,2752
13,389,ABA,no,0,783
13,390,CBA,yes,1,1608
13,391,CBA,yes,1,3300
13,392,CBA,no,1,637
13,393,ABA,yes,1,836
13,394,CBA,no,1,1502
13,395,CBA,no,1,1168
13,396,CBA,yes,1,1576
13,397,ABA,no,1,1650
13,398,CBA,yes,1,955
13,399,CBA,no,1,856
13,400,ABA,yes,0,886
13,401,CBA,no,1,2521
13,402,CBA,no,1,2542
13,403,CBA,no,1,982
13,404,ABA,no,1,2772
13,405,CBA,yes,1,2204
13,406,CBA,no,1,1209
13,407,ABA,no,1,1404
13,408,CBA,no,1,944
13,409,ABA,no,1,1269
13,410,CBA,no,1,1321
13,411,ABA,yes,0,1544
13,412,CBA,yes,1,1031
13,413,ABA,no,1,980
13,414,ABA,no,1,900
13,415,ABA,no,1,2883
13,416,CBA,no,1,2419
13,417,ABA,yes,0,652
13,418,ABA,yes,1,1044
13,419,ABA,yes,1,1983
13,420,CBA,no,1,1552
13,421,CBA,yes,1,764
13,422,CBA,no,1,930
13,423,ABA,yes,1,1631
13,424,ABA,yes,1,825
13,425,ABA,no,1,1019
13,426,CBA,no,1,1255
13,427,ABA,yes,1,2701
13,428,CBA,no,1,1500
13,429,ABA,no,1,923
13,430,ABA,no,1,931
13,431,ABA,no,1,1502
13,432,ABA,no,1,1248
13,433,ABA,yes,1,1106
13,434,ABA,yes,1,610
13,435,ABA,no,1,919
13,436,CBA,yes,1,888
13,437,ABA,no,1,2178
13,438,CBA,yes,1,3824
13,439,ABA,no,1,1825
13,440,CBA,no,1,921
13,441,CBA,no,1,1277
13,442,ABA,yes,1,663
13,443,ABA,yes,1,553
13,444,CBA,no,0,820
13,445,ABA,no,1,830
13,446,ABA,no,1,2371
13,447,ABA,no,0,1675
13,448,ABA,no,1,1665
13,449,ABA,no,1,1457
13,450,ABA,no,1,1861
13,451,ABA,no,1,837
13,452,CBA,no,1,839
13,453,ABA,no,1,957
13,454,CBA,no,1,1171
13,455,ABA,no,1,1044
13,456,ABA,no,1,1548
13,457,ABA,no,1,1864
13,458,ABA,no,1,1146
13,459,CBA,yes,1,1062
13,460,ABA,yes,1,2324
13,461,CBA,no,1,831
13,462,CBA,no,1,696
13,463,ABA,yes,1,1490
13,464,ABA,no,1,985
13,465,CBA,no,1,2634
13,466,CBA,no,1,3937
13,467,CBA,no,1,1238
13,468,ABA,yes,1,699
13,469,ABA,no,1,1681
13,470,ABA,no,0,827
13,471,ABA,no,1,704
13,472,ABA,no,1,849
13,473,ABA,yes,1,1365
13,474,ABA,no,1,1323
13,475,CBA,no,1,3401
13,476,CBA,no,1,652
13,477,ABA,yes,1,601
13,478,ABA,yes,1,400
13,479,ABA,no,1,1222
13,480,ABA,yes,1,3271
14,1,CBA,no,1,1026
14,2,CBA,no,1,872
14,3,CBA,no,1,611
14,4,CBA,no,1,677
14,5,ABA,no,1,654
14,6,CBA,no,1,956
14,7,ABA,yes,1,588
14,8,ABA,no,0,637
14,9,ABA,no,1,892
14,10,CBA,no,1,629
14,11,CBA,no,1,669
14,12,CBA,yes,1,644
14,13,ABA,yes,1,689
14,14,CBA,yes,1,553
14,15,CBA,yes,1,615
14,16,CBA,no,1,751
14,17,ABA,no,1,526
14,18,CBA,yes,1,1711
14,19,ABA,no,1,575
14,20,CBA,no,1,842
14,21,ABA,no,1,840
14,22,ABA,yes,0,1595
14,23,CBA,no,0,566
14,24,ABA,yes,1,1105
14,25,CBA,yes,1,493
14,26,CBA,no,1,639
14,27,CBA,yes,1,788
14,28,ABA,no,1,1288
14,29,CBA,yes,1,542
14,30,ABA,no,1,1195
14,31,ABA,no,1,663
14,32,ABA,yes,1,635
14,33,ABA,no,1,550
14,34,CBA,yes,1,539
14,35,CBA,yes,1,600
14,36,CBA,no,1,576
14,37,CBA,no,1,873
14,38,ABA,no,1,869
14,39,CBA,no,1,724
14,40,ABA,no,1,637
14,41,ABA,no,1,763
14,42,ABA,no,1,1209
14,43,CBA,yes,1,759
14,44,CBA,no,1,2269
14,45,CBA,yes,1,1198
14,46,CBA,no,1,1217
14,47,CBA,no,1,1205
14,48,CBA,no,1,695
14,49,ABA,no,1,592
14,50,CBA,no,1,555
14,51,CBA,no,1,1729
14,52,ABA,yes,0,2166
14,53,ABA,no,1,1315
14,54,CBA,no,1,644
14,55,CBA,no,1,1366
14,56,CBA,no,1,557
14,57,ABA,no,0,1010
14,58,ABA,no,1,2138
14,59,CBA,no,1,932
14,60,CBA,no,1,1991
14,61,CBA,no,1,641
14,62,ABA,yes,1,658
14,63,ABA,no,1,737
14,64,CBA,no,1,555
14,65,ABA,no,1,952
14,66,ABA,no,1,1575
14,67,CBA,no,1,1103
14,68,CBA,no,1,641
14,69,ABA,yes,1,1117
14,70,ABA,yes,1,604
14,71,ABA,no,1,639
14,72,ABA,no,1,734
14,73,ABA,no,1,584
14,74,CBA,no,1,613
14,75,ABA,no,1,805
14,76,ABA,yes,0,672
14,77,ABA,no,1,1113
14,78,ABA,no,1,685
14,79,CBA,no,1,706
14,80,ABA,no,1,723
14,81,CBA,no,1,1269
14,82,ABA,no,1,1109
14,83,CBA,no,1,820
14,84,ABA,no,1,545
14,85,CBA,no,1,596
14,86,CBA,no,1,574
14,87,ABA,no,1,1471
14,88,ABA,no,1,749
14,89,ABA,no,1,957
14,90,ABA,no,1,709
14,91,CBA,no,1,1255
14,92,CBA,no,1,647
14,93,ABA,yes,1,1088
14,94,CBA,no,1,1342
14,95,ABA,yes,1,784
14,96,CBA,no,1,671
14,97,CBA,no,1,2201
14,98,CBA,yes,1,1008
14,99,CBA,no,1,1075
14,100,ABA,no,0,1490
14,101,CBA,no,1,1319
14,102,CBA,no,1,1879
14,103,CBA,no,0,642
14,104,ABA,no,1,1803
14,105,CBA,no,0,757
14,106,ABA,no,1,860
14,107,CBA,no,0,808
14,108,ABA,no,1,3610
14,109,ABA,no,1,721
14,110,CBA,no,1,699
14,111,ABA,no,1,1891
14,112,ABA,no,1,1884
14,113,CBA,no,1,1728
14,114,CBA,yes,0,1130
14,115,CBA,no,1,3916
14,116,CBA,yes,1,581
14,117,CBA,no,1,771
14,118,ABA,no,1,960
14,119,ABA,no,0,2292
14,120,CBA,no,1,691
14,121,ABA,no,1,1778
14,122,CBA,no,1,631
14,123,ABA,no,1,1323
14,124,ABA,no,1,573
14,125,CBA,no,1,1418
14,126,ABA,no,1,854
14,127,CBA,yes,1,1817
14,128,CBA,yes,1,713
14,129,CBA,yes,1,1077
14,130,CBA,no,1,1084
14,131,CBA,no,1,897
14,132,CBA,no,1,962
14,133,CBA,no,1,1687
14,134,ABA,yes,1,529
14,135,ABA,yes,1,1023
14,136,ABA,yes,1,513
14,137,CBA,no,1,703
14,138,CBA,no,1,1954
14,139,CBA,yes,1,647
14,140,ABA,no,1,1846
14,141,ABA,no,1,579
14,142,ABA,no,1,4727
14,143,CBA,no,1,925
14,144,CBA,no,1,750
14,145,CBA,no,1,1234
14,146,CBA,no,1,600
14,147,CBA,yes,1,585
14,148,CBA,yes,0,645
14,149,CBA,no,1,749
14,150,ABA,no,1,711
14,151,ABA,no,1,733
14,152,ABA,no,1,641
14,153,ABA,no,1,581
14,154,ABA,no,1,609
14,155,ABA,no,1,765
14,156,ABA,no,1,546
14,157,ABA,no,1,769
14,158,CBA,yes,1,556
14,159,ABA,no,1,826
14,160,ABA,no,1,1027
14,161,CBA,no,1,1047
14,162,CBA,yes,1,938
14,163,CBA,no,1,841
14,164,CBA,no,1,751
14,165,ABA,no,1,1000
14,166,CBA,yes,1,1452
14,167,ABA,yes,1,602
14,168,CBA,no,1,579
14,169,CBA,yes,1,1084
14,170,CBA,no,0,515
14,171,ABA,no,1,2207
14,172,ABA,no,1,871
14,173,ABA,no,1,670
14,174,ABA,yes,1,736
14,175,ABA,yes,1,646
14,176,ABA,no,1,1112
14,177,CBA,no,1,1667
14,178,CBA,no,1,703
14,179,ABA,no,1,908
14,180,ABA,no,1,647
14,181,ABA,no,1,2558
14,182,CBA,yes,1,513
14,183,CBA,no,1,547
14,184,ABA,no,1,1171
14,185,CBA,yes,1,1424
14,186,CBA,no,1,1315
14,187,CBA,no,0,1635
14,188,CBA,no,1,2374
14,189,CBA,no,1,545
14,190,CBA,no,1,1355
14,191,CBA,no,1,1842
14,192,ABA,yes,1,554
14,193,CBA,yes,1,647
14,194,ABA,yes,1,581
14,195,CBA,yes,1,1111
14,196,ABA,no,1,3749
14,197,CBA,no,1,503
14,198,CBA,no,1,2341
14,199,ABA,yes,1,486
14,200,ABA,no,1,1705
14,201,ABA,no,1,581
14,202,CBA,no,1,1306
14,203,ABA,no,1,597
14,204,ABA,yes,1,655
14,205,CBA,yes,1,593
14,206,CBA,no,1,584
14,207,CBA,no,1,602
14,208,CBA,no,1,605
14,209,ABA,no,1,578
14,210,ABA,yes,1,1332
14,211,CBA,no,1,471
14,212,CBA,yes,1,624
14,213,ABA,yes,1,540
14,214,ABA,no,1,721
14,215,ABA,no,1,1915
14,216,CBA,no,1,876
14,217,CBA,no,1,1631
14,218,ABA,no,1,2928
14,219,CBA,yes,1,1864
14,220,CBA,no,1,726
14,221,CBA,no,1,1224
14,222,CBA,no,1,1093
14,223,ABA,no,1,828
14,224,CBA,yes,1,520
14,225,CBA,yes,1,923
14,226,CBA,no,1,1639
14,227,ABA,no,1,698
14,228,ABA,yes,1,3341
14,229,CBA,no,1,3818
14,230,ABA,no,1,1661
14,231,CBA,yes,1,735
14,232,ABA,yes,1,1569
14,233,ABA,no,1,792
14,234,CBA,no,1,591
14,235,CBA,yes,0,693
14,236,ABA,no,1,1046
14,237,ABA,no,1,1400
14,238,ABA,no,1,532
14,239,ABA,yes,1,599
14,240,CBA,no,1,572
14,241,CBA,yes,1,612
14,242,ABA,no,1,951
14,243,ABA,yes,1,506
14,244,CBA,yes,1,616
14,245,CBA,yes,1,2334
14,246,ABA,no,1,1136
14,247,CBA,no,1,553
14,248,CBA,yes,1,1233
14,249,ABA,no,1,617
14,250,ABA,no,1,1372
14,251,CBA,no,1,1178
14,252,ABA,no,1,1428
14,253,CBA,no,1,701
14,254,CBA,yes,1,974
14,255,ABA,no,1,927
14,256,ABA,no,1,1614
14,257,CBA,yes,1,480
14,258,CBA,no,1,562
14,259,CBA,no,1,608
14,260,ABA,no,1,693
14,261,CBA,no,1,676
14,262,CBA,yes,1,652
14,263,CBA,no,1,616
14,264,ABA,no,0,640
14,265,CBA,no,1,967
14,266,ABA,no,1,1445
14,267,ABA,yes,1,690
14,268,CBA,yes,1,581
14,269,ABA,no,1,1053
14,270,CBA,no,1,626
14,271,CBA,no,1,824
14,272,CBA,no,1,639
14,273,ABA,no,1,574
14,274,ABA,no,1,1154
14,275,CBA,no,1,1726
14,276,ABA,yes,1,782
14,277,CBA,no,1,603
14,278,ABA,no,1,1129
14,279,CBA,no,1,928
14,280,ABA,yes,1,1194
14,281,CBA,no,0,874
14,282,CBA,yes,1,1057
14,283,ABA,no,1,715
14,284,ABA,no,0,1123
14,285,CBA,yes,1,1730
14,286,CBA,no,1,1630
14,287,ABA,yes,1,1064
14,288,CBA,no,1,1248
14,289,CBA,no,1,574
14,290,CBA,no,1,2232
14,291,CBA,no,0,1105
14,292,CBA,no,1,2345
14,293,CBA,no,1,573
14,294,ABA,no,1,1703
14,295,CBA,no,1,602
14,296,CBA,yes,1,2035
14,297,ABA,yes,1,639
14,298,ABA,no,1,1237
14,299,CBA,no,1,455
14,300,ABA,no,1,583
14,301,CBA,no,1,551
14,302,ABA,no,1,642
14,303,ABA,no,1,573
14,304,ABA,yes,1,2447
14,305,CBA,no,1,578
14,306,CBA,no,1,1111
14,307,CBA,no,1,1441
14,308,CBA,no,1,505
14,309,ABA,no,1,1800
14,310,ABA,no,1,510
14,311,ABA,no,1,548
14,312,ABA,no,1,833
14,313,ABA,no,1,1656
14,314,ABA,yes,1,574
14,315,ABA,no,1,1625
14,316,ABA,no,1,663
14,317,CBA,no,1,590
14,318,CBA,yes,0,560
14,319,ABA,yes,1,3145
14,320,CBA,no,1,1962
14,321,ABA,yes,1,842
14,322,ABA,no,1,609
14,323,ABA,no,1,901
14,324,CBA,no,1,648
14,325,CBA,no,1,1302
14,326,CBA,yes,1,1256
14,327,ABA,no,1,557
14,328,ABA,no,1,1211
14,329,CBA,no,0,672
14,330,ABA,yes,1,3960
14,331,CBA,no,1,2008
14,332,ABA,no,1,708
14,333,ABA,yes,1,555
14,334,ABA,no,1,1974
14,335,ABA,no,1,934
14,336,CBA,no,1,632
14,337,CBA,yes,1,2035
14,338,CBA,no,0,1390
14,339,ABA,no,1,1080
14,340,CBA,no,1,654
14,341,CBA,no,1,650
14,342,ABA,no,1,657
14,343,ABA,no,1,1083
14,344,ABA,no,1,597
14,345,ABA,no,1,611
14,346,ABA,yes,1,668
14,347,CBA,no,1,1046
14,348,ABA,no,1,616
14,349,CBA,no,1,666
14,350,CBA,no,1,843
14,351,CBA,no,1,1368
14,352,CBA,yes,1,1079
14,353,CBA,no,0,631
14,354,CBA,no,1,874
14,355,CBA,yes,1,1071
14,356,CBA,no,1,855
14,357,ABA,no,1,1346
14,358,ABA,no,0,758
14,359,ABA,yes,1,842
14,360,CBA,no,1,1732
14,361,CBA,no,1,2075
14,362,ABA,yes,1,517
14,363,ABA,no,1,1015
14,364,CBA,yes,1,582
14,365,CBA,yes,1,493
14,366,CBA,yes,1,1539
14,367,ABA,yes,1,532
14,368,ABA,no,1,972
14,369,CBA,yes,1,1427
14,370,CBA,yes,1,505
14,371,ABA,yes,1,3022
14,372,ABA,no,1,580
14,373,ABA,no,1,654
14,374,ABA,no,1,701
14,375,ABA,yes,1,1083
14,376,ABA,no,1,1214
14,377,ABA,no,1,868
14,378,CBA,no,1,1896
14,379,CBA,yes,1,584
14,380,CBA,no,1,970
14,381,ABA,no,1,1877
14,382,ABA,no,1,529
14,383,ABA,no,1,860
14,384,ABA,no,1,595
14,385,CBA,yes,1,506
14,386,ABA,no,1,600
14,387,CBA,yes,1,613
14,388,ABA,no,1,670
14,389,ABA,no,1,576
14,390,CBA,yes,1,587
14,391,CBA,no,1,508
14,392,ABA,no,1,2208
14,393,CBA,no,1,639
14,394,ABA,no,1,662
14,395,CBA,no,1,702
14,396,ABA,no,1,654
14,397,CBA,no,1,810
14,398,CBA,no,1,964
14,399,CBA,yes,0,980
14,400,ABA,no,1,589
14,401,CBA,no,1,619
14,402,CBA,yes,1,948
14,403,ABA,no,1,652
14,404,CBA,no,1,951
14,405,CBA,no,1,3321
14,406,ABA,no,1,555
14,407,CBA,no,1,827
14,408,ABA,no,1,2061
14,409,ABA,no,1,657
14,410,CBA,yes,1,1437
14,411,ABA,no,1,693
14,412,ABA,yes,1,717
14,413,ABA,no,1,686
14,414,CBA,no,1,940
14,415,ABA,no,1,689
14,416,ABA,no,1,676
14,417,ABA,yes,1,595
14,418,ABA,yes,1,468
14,419,CBA,no,1,495
14,420,ABA,no,1,637
14,421,CBA,yes,1,611
14,422,CBA,no,1,585
14,423,ABA,yes,1,643
14,424,ABA,no,1,528
14,425,ABA,no,1,670
14,426,ABA,yes,1,869
14,427,CBA,no,1,550
14,428,ABA,no,1,1014
14,429,CBA,no,1,490
14,430,ABA,no,1,3006
14,431,CBA,no,1,640
14,432,ABA,no,1,879
14,433,ABA,no,0,627
14,434,ABA,no,1,741
14,435,ABA,yes,1,602
14,436,CBA,yes,1,567
14,437,CBA,no,1,1651
14,438,CBA,no,1,762
14,439,CBA,no,1,527
14,440,CBA,yes,1,2830
14,441,CBA,no,1,600
14,442,ABA,no,1,1232
14,443,CBA,no,1,505
14,444,ABA,no,1,559
14,445,ABA,no,1,580
14,446,ABA,no,1,1397
14,447,ABA,no,1,549
14,448,CBA,no,1,1002
14,449,CBA,no,1,2094
14,450,ABA,yes,1,591
14,451,ABA,no,1,967
14,452,CBA,no,1,647
14,453,ABA,no,1,842
14,454,CBA,no,1,1408
14,455,ABA,no,1,1264
14,456,ABA,yes,1,699
14,457,CBA,no,1,568
14,458,ABA,no,1,1109
14,459,ABA,no,1,1253
14,460,CBA,yes,1,666
14,461,ABA,yes,1,1243
14,462,ABA,no,1,1600
14,463,CBA,no,1,748
14,464,CBA,no,0,781
14,465,ABA,no,1,2826
14,466,CBA,no,1,555
14,467,ABA,yes,1,803
14,468,ABA,no,0,606
14,469,ABA,no,0,1501
14,470,CBA,no,1,596
14,471,CBA,no,1,514
14,472,ABA,yes,1,521
14,473,CBA,no,1,1226
14,474,CBA,no,1,645
14,475,ABA,no,1,521
14,476,ABA,no,1,734
14,477,ABA,no,1,753
14,478,ABA,no,1,799
14,479,ABA,no,1,1046
14,480,CBA,yes,1,986
15,1,CBA,no,1,574
15,2,ABA,no,0,504
15,3,ABA,no,1,500
15,4,ABA,no,0,798
15,5,ABA,yes,1,458
15,6,CBA,yes,1,967
15,7,ABA,no,1,559
15,8,CBA,no,0,1337
15,9,CBA,no,1,1633
15,10,CBA,no,1,563
15,11,ABA,no,1,1038
15,12,ABA,no,1,568
15,13,ABA,no,1,589
15,14,ABA,no,1,501
15,15,CBA,no,1,552
15,16,CBA,no,1,532
15,17,ABA,no,1,624
15,18,ABA,no,1,567
15,19,ABA,yes,1,792
15,20,CBA,yes,1,479
15,21,ABA,no,1,945
15,22,ABA,yes,1,958
15,23,CBA,no,1,452
15,24,ABA,no,1,1186
15,25,ABA,no,0,458
15,26,ABA,no,1,517
15,27,ABA,no,1,488
15,28,CBA,no,1,483
15,29,ABA,no,1,1237
15,30,ABA,yes,1,1075
15,31,ABA,yes,1,1234
15,32,ABA,no,0,483
15,33,CBA,yes,1,529
15,34,CBA,no,1,502
15,35,ABA,no,1,567
15,36,CBA,yes,1,977
15,37,CBA,no,1,1068
15,38,ABA,no,1,1485
15,39,CBA,yes,1,555
15,40,ABA,no,1,1949
15,41,CBA,yes,1,995
15,42,CBA,no,1,497
15,43,ABA,no,1,997
15,44,ABA,no,1,544
15,45,CBA,yes,1,1303
15,46,ABA,no,1,1067
15,47,CBA,yes,1,969
15,48,CBA,yes,1,1252
15,49,ABA,no,1,668
15,50,CBA,no,1,500
15,51,CBA,no,1,1060
15,52,ABA,no,1,468
15,53,ABA,no,1,1747
15,54,ABA,yes,1,482
15,55,ABA,no,0,890
15,56,CBA,no,1,856
15,57,CBA,yes,1,506
15,58,CBA,yes,0,1600
15,59,CBA,no,1,1245
15,60,ABA,no,1,1309
15,61,CBA,yes,1,479
15,62,ABA,yes,1,1098
15,63,CBA,no,1,447
15,64,ABA,no,1,1503
15,65,CBA,no,1,678
15,66,ABA,no,1,1375
15,67,CBA,no,1,562
15,68,CBA,yes,1,924
15,69,CBA,no,0,2316
15,70,ABA,no,1,1037
15,71,ABA,no,1,806
15,72,ABA,no,1,703
15,73,ABA,yes,1,630
15,74,CBA,yes,1,1111
15,75,CBA,no,1,759
15,76,ABA,no,1,2825
15,77,ABA,no,1,472
15,78,CBA,no,1,1603
15,79,ABA,no,1,468
15,80,ABA,no,1,1328
15,81,ABA,no,1,670
15,82,ABA,no,1,1723
15,83,CBA,no,0,1028
15,84,CBA,no,1,452
15,85,CBA,yes,1,1493
15,86,CBA,yes,1,1354
15,87,ABA,yes,1,667
15,88,CBA,no,1,544
15,89,ABA,yes,1,1048
15,90,ABA,no,1,1563
15,91,CBA,no,1,892
15,92,CBA,no,1,2023
15,93,CBA,yes,1,1024
15,94,CBA,yes,1,1160
15,95,ABA,no,1,610
15,96,ABA,no,1,1543
15,97,CBA,yes,1,819
15,98,CBA,no,1,468
15,99,CBA,yes,1,773
15,100,ABA,no,1,867
15,101,ABA,yes,1,1123
15,102,ABA,no,1,654
15,103,ABA,yes,1,1189
15,104,ABA,no,1,523
15,105,ABA,yes,1,452
15,106,CBA,no,1,656
15,107,ABA,yes,1,1166
15,108,CBA,yes,1,1118
15,109,ABA,yes,1,716
15,110,CBA,yes,1,537
15,111,CBA,no,1,612
15,112,ABA,no,1,709
15,113,CBA,no,1,1040
15,114,ABA,no,0,1111
15,115,ABA,yes,1,1380
15,116,CBA,yes,1,570
15,117,CBA,no,1,761
15,118,CBA,no,1,1228
15,119,ABA,no,1,858
15,120,CBA,yes,1,597
15,121,ABA,no,1,483
15,122,CBA,no,1,430
15,123,CBA,yes,1,411
15,124,CBA,no,1,846
15,125,ABA,no,1,941
15,126,ABA,no,1,729
15,127,ABA,yes,1,401
15,128,CBA,no,0,767
15,129,ABA,no,1,526
15,130,CBA,yes,1,2022
15,131,CBA,yes,1,872
15,132,ABA,yes,1,632
15,133,CBA,no,1,450
15,134,ABA,no,0,404
15,135,ABA,no,1,902
15,136,ABA,no,1,840
15,137,ABA,no,1,578
15,138,ABA,no,0,1607
15,139,CBA,no,1,717
15,140,CBA,no,1,455
15,141,ABA,yes,1,1801
15,142,ABA,yes,1,493
15,143,CBA,no,1,544
15,144,CBA,no,0,523
15,145,CBA,no,1,1159
15,146,ABA,no,1,861
15,147,CBA,no,1,466
15,148,CBA,no,1,978
15,149,CBA,no,1,1563
15,150,ABA,no,1,549
15,151,CBA,no,1,671
15,152,ABA,no,1,539
15,153,ABA,yes,1,590
15,154,CBA,no,1,590
15,155,CBA,yes,1,527
15,156,CBA,yes,1,946
15,157,CBA,yes,1,960
15,158,ABA,no,1,1767
15,159,CBA,yes,1,500
15,160,ABA,no,1,767
15,161,ABA,no,0,649
15,162,ABA,no,1,612
15,163,ABA,no,1,451
15,164,CBA,no,1,783
15,165,ABA,no,1,802
15,166,CBA,no,1,733
15,167,CBA,yes,0,688
15,168,ABA,no,1,2508
15,169,ABA,yes,0,493
15,170,ABA,no,1,847
15,171,CBA,no,1,446
15,172,ABA,no,1,938
15,173,CBA,yes,1,573
15,174,CBA,no,1,971
15,175,CBA,yes,1,2227
15,176,CBA,no,0,1190
15,177,ABA,no,1,868
15,178,CBA,yes,1,689
15,179,ABA,no,1,1418
15,180,ABA,yes,1,956
15,181,CBA,no,1,964
15,182,ABA,no,1,1787
15,183,CBA,no,1,1346
15,184,ABA,no,1,977
15,185,CBA,yes,1,2195
15,186,CBA,no,1,3200
15,187,ABA,no,1,1156
15,188,ABA,yes,1,672
15,189,ABA,no,1,938
15,190,CBA,yes,1,594
15,191,CBA,yes,1,1224
15,192,ABA,no,1,997
15,193,CBA,no,1,1122
15,194,ABA,no,1,495
15,195,ABA,no,0,803
15,196,CBA,no,1,563
15,197,ABA,yes,1,556
15,198,CBA,yes,1,496
15,199,ABA,no,1,854
15,200,ABA,no,1,626
15,201,ABA,no,1,994
15,202,ABA,no,1,730
15,203,ABA,no,1,1214
15,204,ABA,no,1,513
15,205,CBA,no,1,573
15,206,ABA,yes,1,972
15,207,CBA,yes,1,1064
15,208,CBA,no,1,2140
15,209,ABA,no,0,1329
15,210,CBA,no,1,611
15,211,ABA,no,0,741
15,212,ABA,yes,1,387
15,213,ABA,no,1,1435
15,214,ABA,no,1,475
15,215,ABA,no,1,892
15,216,CBA,no,0,516
15,217,ABA,yes,1,858
15,218,ABA,no,1,459
15,219,CBA,no,1,536
15,220,ABA,no,0,475
15,221,ABA,no,1,1021
15,222,CBA,no,1,531
15,223,ABA,no,1,451
15,224,ABA,no,0,580
15,225,ABA,no,1,565
15,226,ABA,yes,1,1063
15,227,CBA,yes,1,794
15,228,ABA,no,1,2875
15,229,ABA,no,1,760
15,230,ABA,yes,1,1235
15,231,CBA,no,1,550
15,232,ABA,no,1,1048
15,233,CBA,no,1,592
15,234,ABA,no,1,901
15,235,CBA,no,1,654
15,236,CBA,no,1,940
15,237,CBA,yes,1,1028
15,238,CBA,no,1,548
15,239,CBA,no,1,2004
15,240,ABA,yes,1,1112
15,241,CBA,yes,1,698
15,242,ABA,no,1,759
15,243,ABA,no,1,1210
15,244,ABA,no,1,429
15,245,ABA,no,1,933
15,246,ABA,no,1,439
15,247,CBA,no,0,452
15,248,ABA,no,1,420
15,249,ABA,no,1,736
15,250,CBA,yes,1,463
15,251,CBA,no,1,444
15,252,CBA,no,0,1304
15,253,ABA,no,1,528
15,254,ABA,no,1,2581
15,255,ABA,no,1,485
15,256,ABA,no,1,1354
15,257,CBA,no,1,548
15,258,CBA,no,1,507
15,259,ABA,no,0,529
15,260,CBA,yes,1,914
15,261,CBA,yes,1,617
15,262,CBA,no,1,1314
15,263,ABA,no,1,480
15,264,ABA,no,1,1036
15,265,CBA,yes,1,1551
15,266,CBA,no,1,538
15,267,ABA,yes,1,489
15,268,CBA,no,1,1233
15,269,CBA,yes,1,1479
15,270,CBA,no,1,598
15,271,ABA,no,1,1291
15,272,ABA,no,1,1027
15,273,CBA,no,1,511
15,274,CBA,no,1,571
15,275,CBA,no,1,876
15,276,CBA,no,1,588
15,277,CBA,no,1,1554
15,278,CBA,no,1,1471
15,279,ABA,yes,1,1450
15,280,ABA,no,1,1181
15,281,CBA,no,1,493
15,282,CBA,no,1,509
15,283,ABA,no,1,530
15,284,ABA,no,1,1225
15,285,ABA,yes,1,529
15,286,ABA,no,1,648
15,287,ABA,yes,1,1089
15,288,ABA,no,1,1255
15,289,ABA,no,1,662
15,290,ABA,no,1,687
15,291,CBA,no,1,669
15,292,ABA,no,1,624
15,293,ABA,no,1,733
15,294,CBA,no,1,553
15,295,ABA,no,0,642
15,296,ABA,no,0,823
15,297,CBA,no,1,578
15,298,ABA,no,0,794
15,299,ABA,no,1,396
15,300,CBA,no,1,1768
15,301,ABA,no,1,540
15,302,ABA,no,1,868
15,303,CBA,yes,1,677
15,304,CBA,no,1,1050
15,305,ABA,yes,0,1112
15,306,CBA,no,1,864
15,307,ABA,yes,1,913
15,308,ABA,no,1,1153
15,309,CBA,yes,1,609
15,310,ABA,no,1,647
15,311,ABA,no,1,1167
15,312,CBA,no,1,1249
15,313,CBA,no,1,981
15,314,ABA,yes,1,1311
15,315,ABA,yes,1,1557
15,316,ABA,no,1,898
15,317,ABA,no,1,963
15,318,ABA,no,1,2150
15,319,ABA,yes,1,478
15,320,CBA,yes,1,433
15,321,CBA,no,1,2469
15,322,ABA,yes,1,503
15,323,ABA,no,0,428
15,324,ABA,no,1,494
15,325,CBA,yes,1,772
15,326,CBA,yes,1,692
15,327,CBA,yes,1,1100
15,328,ABA,yes,1,2413
15,329,ABA,no,1,752
15,330,CBA,no,1,1670
15,331,CBA,yes,0,868
15,332,CBA,no,1,450
15,333,CBA,yes,1,789
15,334,CBA,no,1,607
15,335,CBA,no,1,495
15,336,ABA,yes,1,1116
15,337,ABA,no,1,914
15,338,CBA,no,1,1031
15,339,CBA,no,1,1580
15,340,CBA,no,1,473
15,341,CBA,no,1,2746
15,342,CBA,no,0,525
15,343,ABA,no,1,1127
15,344,ABA,yes,1,663
15,345,CBA,no,1,747
15,346,CBA,yes,0,830
15,347,ABA,no,1,2332
15,348,ABA,no,1,508
15,349,CBA,no,1,408
15,350,CBA,no,1,394
15,351,ABA,no,1,953
15,352,ABA,yes,0,872
15,353,CBA,no,1,1484
15,354,CBA,no,0,1167
15,355,ABA,no,1,2306
15,356,ABA,no,1,555
15,357,CBA,no,1,477
15,358,CBA,no,1,1005
15,359,ABA,no,1,1526
15,360,ABA,no,1,783
15,361,CBA,no,1,1038
15,362,CBA,no,1,524
15,363,CBA,yes,1,501
15,364,ABA,no,1,805
15,365,CBA,no,1,750
15,366,ABA,no,1,739
15,367,CBA,no,1,748
15,368,ABA,no,1,681
15,369,ABA,yes,1,1070
15,370,ABA,no,1,507
15,371,CBA,no,1,452
15,372,CBA,yes,1,629
15,373,ABA,no,1,658
15,374,ABA,no,1,1307
15,375,CBA,yes,1,457
15,376,CBA,no,1,1003
15,377,ABA,no,1,587
15,378,ABA,no,1,1824
15,379,CBA,yes,0,819
15,380,CBA,no,1,494
15,381,CBA,yes,1,903
15,382,ABA,no,1,524
15,383,ABA,no,0,735
15,384,ABA,no,1,497
15,385,CBA,no,0,704
15,386,ABA,no,1,598
15,387,CBA,no,1,1284
15,388,ABA,yes,1,552
15,389,CBA,yes,1,922
15,390,ABA,no,1,850
15,391,CBA,no,1,1039
15,392,ABA,no,1,830
15,393,CBA,no,0,1063
15,394,CBA,no,1,575
15,395,ABA,yes,1,501
15,396,CBA,yes,1,706
15,397,ABA,no,1,1422
15,398,ABA,no,1,489
15,399,CBA,yes,1,968
15,400,CBA,yes,0,1239
15,401,ABA,no,1,993
15,402,CBA,no,1,474
15,403,CBA,no,1,500
15,404,CBA,no,1,529
15,405,CBA,yes,1,604
15,406,ABA,yes,1,1785
15,407,ABA,no,1,522
15,408,ABA,no,1,1939
15,409,CBA,no,1,984
15,410,CBA,yes,1,482
15,411,CBA,yes,1,605
15,412,CBA,no,1,611
15,413,ABA,no,1,1120
15,414,CBA,yes,1,827
15,415,CBA,no,1,1041
15,416,ABA,no,1,579
15,417,CBA,yes,0,1054
15,418,CBA,yes,1,915
15,419,ABA,yes,1,1243
15,420,CBA,no,1,393
15,421,CBA,no,1,1733
15,422,CBA,no,1,537
15,423,ABA,no,1,1239
15,424,ABA,no,1,1026
15,425,CBA,no,1,3108
15,426,ABA,yes,1,1126
15,427,CBA,no,1,515
15,428,ABA,yes,1,534
15,429,CBA,no,1,468
15,430,ABA,no,1,1272
15,431,ABA,no,1,631
15,432,ABA,no,0,446
15,433,CBA,no,1,526
15,434,CBA,no,1,448
15,435,ABA,no,1,966
15,436,ABA,yes,1,2831
15,437,ABA,no,1,640
15,438,CBA,yes,1,1079
15,439,ABA,no,1,1440
15,440,CBA,no,1,535
15,441,ABA,no,1,1345
15,442,ABA,no,1,831
15,443,ABA,no,1,1261
15,444,ABA,no,1,634
15,445,ABA,yes,1,1636
15,446,CBA,no,1,739
15,447,ABA,no,1,1995
15,448,CBA,no,1,574
15,449,CBA,yes,1,791
15,450,ABA,no,1,642
15,451,ABA,yes,1,1805
15,452,CBA,yes,1,499
15,453,CBA,no,1,522
15,454,ABA,no,1,990
15,455,CBA,no,1,551
15,456,ABA,no,1,668
15,457,ABA,no,1,719
15,458,ABA,no,1,649
15,459,ABA,no,1,1211
15,460,CBA,yes,1,585
15,461,ABA,no,1,880
15,462,ABA,no,1,579
15,463,CBA,no,1,461
15,464,CBA,no,1,883
15,465,ABA,no,1,542
15,466,CBA,no,1,556
15,467,CBA,no,1,1633
15,468,ABA,no,1,802
15,469,ABA,no,0,697
15,470,ABA,no,1,932
15,471,ABA,no,1,1828
15,472,CBA,no,1,671
15,473,CBA,no,1,453
15,474,ABA,no,1,728
15,475,ABA,yes,1,918
15,476,CBA,no,1,1200
15,477,CBA,no,0,715
15,478,CBA,no,1,504
15,479,CBA,no,0,516
15,480,ABA,no,1,883
16,1,CBA,no,1,1563
16,2,CBA,no,1,741
16,3,CBA,yes,1,790
16,4,CBA,no,1,1463
16,5,ABA,no,1,1004
16,6,CBA,no,1,992
16,7,CBA,no,1,1520
16,8,CBA,yes,1,1068
16,9,CBA,no,1,922
16,10,ABA,no,1,1007
16,11,CBA,yes,1,870
16,12,ABA,no,1,1032
16,13,ABA,no,1,1952
16,14,CBA,yes,1,1252
16,15,CBA,yes,1,897
16,16,ABA,no,1,956
16,17,CBA,no,1,1175
16,18,ABA,no,1,660
16,19,CBA,no,1,901
16,20,ABA,yes,1,952
16,21,CBA,no,0,852
16,22,CBA,no,1,2512
16,23,CBA,no,1,1071
16,24,ABA,yes,1,761
16,25,CBA,no,1,1044
16,26,CBA,yes,1,759
16,27,CBA,no,1,685
16,28,ABA,no,1,1560
16,29,CBA,no,1,766
16,30,CBA,no,1,824
16,31,ABA,no,1,793
16,32,CBA,no,1,1150
16,33,CBA,no,1,885
16,34,CBA,no,1,1066
16,35,ABA,no,1,820
16,36,CBA,yes,1,1246
16,37,ABA,no,1,1077
16,38,CBA,yes,1,944
16,39,CBA,no,1,883
16,40,CBA,no,1,754
16,41,ABA,yes,1,956
16,42,ABA,no,1,1624
16,43,CBA,no,1,976
16,44,CBA,no,1,701
16,45,ABA,no,0,867
16,46,CBA,no,0,1039
16,47,ABA,no,1,863
16,48,ABA,yes,1,1063
16,49,CBA,yes,1,855
16,50,CBA,no,1,1892
16,51,ABA,no,1,1464
16,52,ABA,no,1,1384
16,53,CBA,yes,1,649
16,54,ABA,yes,1,829
16,55,CBA,yes,1,690
16,56,CBA,yes,1,991
16,57,CBA,no,1,1651
16,58,ABA,no,1,830
16,59,ABA,yes,1,1108
16,60,CBA,no,1,801
16,61,CBA,no,1,752
16,62,ABA,yes,1,1612
16,63,CBA,no,1,838
16,64,ABA,no,1,1185
16,65,CBA,no,1,980
16,66,CBA,no,1,1006
16,67,ABA,no,1,756
16,68,CBA,no,1,1109
16,69,ABA,no,1,758
16,70,CBA,no,1,619
16,71,ABA,no,1,822
16,72,CBA,no,1,726
16,73,CBA,yes,1,879
16,74,ABA,no,1,1453
16,75,ABA,yes,1,1127
16,76,CBA,yes,1,758
16,77,ABA,no,1,763
16,78,ABA,no,1,795
16,79,CBA,no,1,614
16,80,CBA,yes,1,1813
16,81,CBA,yes,1,800
16,82,ABA,no,1,668
16,83,CBA,no,1,874
16,84,ABA,no,1,967
16,85,ABA,no,1,739
16,86,CBA,no,1,716
16,87,ABA,no,1,1422
16,88,ABA,yes,1,757
16,89,ABA,no,1,992
16,90,ABA,no,0,1171
16,91,CBA,no,1,1436
16,92,CBA,no,1,1566
16,93,CBA,no,1,793
16,94,CBA,no,1,1082
16,95,ABA,no,1,870
16,96,ABA,yes,1,970
16,97,ABA,no,1,1121
16,98,CBA,yes,1,658
16,99,ABA,yes,1,682
16,100,CBA,no,1,848
16,101,ABA,no,1,1132
16,102,CBA,yes,1,895
16,103,CBA,no,1,961
16,104,ABA,no,1,735
16,105,ABA,yes,1,1585
16,106,ABA,yes,1,775
16,107,CBA,no,1,760
16,108,ABA,no,1,2020
16,109,CBA,yes,1,1111
16,110,ABA,no,1,717
16,111,ABA,no,1,1664
16,112,CBA,no,1,808
16,113,CBA,no,1,570
16,114,ABA,yes,1,1001
16,115,CBA,no,1,1092
16,116,ABA,yes,1,1595
16,117,CBA,yes,1,632
16,118,ABA,yes,1,1267
16,119,ABA,no,1,805
16,120,CBA,no,1,928
16,121,CBA,no,1,661
16,122,CBA,no,1,776
16,123,CBA,no,1,797
16,124,CBA,no,1,664
16,125,CBA,no,1,698
16,126,ABA,no,1,705
16,127,CBA,no,1,662
16,128,CBA,yes,1,671
16,129,CBA,no,1,727
16,130,ABA,yes,1,654
16,131,ABA,no,1,610
16,132,CBA,yes,1,630
16,133,CBA,no,1,611
16,134,CBA,no,1,727
16,135,ABA,no,1,585
16,136,CBA,yes,1,962
16,137,CBA,no,1,1097
16,138,ABA,no,1,700
16,139,CBA,no,1,788
16,140,ABA,no,1,1239
16,141,ABA,no,1,806
16,142,CBA,yes,1,634
16,143,ABA,yes,1,707
16,144,ABA,no,1,850
16,145,CBA,yes,1,652
16,146,CBA,no,1,692
16,147,CBA,no,1,929
16,148,ABA,no,1,576
16,149,ABA,yes,1,1346
16,150,CBA,no,1,874
16,151,CBA,no,1,557
16,152,CBA,yes,1,782
16,153,CBA,no,1,866
16,154,ABA,no,1,704
16,155,CBA,no,1,546
16,156,CBA,no,1,1137
16,157,ABA,no,1,571
16,158,CBA,no,1,1151
16,159,ABA,yes,1,939
16,160,CBA,no,1,1168
16,161,CBA,no,1,850
16,162,CBA,no,0,815
16,163,ABA,yes,1,679
16,164,ABA,no,1,617
16,165,ABA,yes,1,831
16,166,ABA,yes,1,681
16,167,ABA,yes,1,703
16,168,ABA,no,1,687
16,169,ABA,no,1,629
16,170,CBA,yes,1,656
16,171,ABA,no,1,729
16,172,ABA,no,1,912
16,173,ABA,no,1,655
16,174,ABA,yes,1,873
16,175,CBA,no,1,771
16,176,CBA,no,1,817
16,177,CBA,no,1,814
16,178,CBA,no,1,822
16,179,CBA,no,1,1338
16,180,CBA,no,1,1267
16,181,ABA,no,1,787
16,182,ABA,no,1,993
16,183,CBA,no,1,530
16,184,CBA,yes,1,714
16,185,ABA,no,1,588
16,186,CBA,no,1,1191
16,187,ABA,yes,1,497
16,188,ABA,yes,1,1069
16,189,CBA,no,1,638
16,190,CBA,no,1,571
16,191,ABA,no,1,2033
16,192,ABA,no,1,491
16,193,CBA,no,1,955
16,194,CBA,yes,1,605
16,195,ABA,yes,1,1198
16,196,ABA,yes,1,692
16,197,ABA,no,1,685
16,198,CBA,no,1,599
16,199,CBA,yes,1,674
16,200,ABA,no,1,713
16,201,ABA,no,1,1345
16,202,CBA,yes,1,702
16,203,ABA,no,1,702
16,204,ABA,no,1,930
16,205,CBA,no,1,1057
16,206,CBA,yes,1,644
16,207,ABA,no,1,588
16,208,CBA,no,1,746
16,209,CBA,no,1,885
16,210,CBA,yes,1,691
16,211,CBA,yes,1,798
16,212,CBA,no,1,680
16,213,ABA,yes,1,520
16,214,ABA,no,1,727
16,215,CBA,no,1,621
16,216,CBA,no,1,628
16,217,ABA,yes,1,707
16,218,ABA,no,1,999
16,219,ABA,no,1,655
16,220,CBA,no,1,738
16,221,CBA,no,1,693
16,222,ABA,no,1,641
16,223,CBA,yes,1,612
16,224,CBA,no,1,994
16,225,ABA,no,1,708
16,226,CBA,no,1,846
16,227,CBA,yes,1,586
16,228,CBA,no,1,1654
16,229,CBA,no,1,560
16,230,CBA,no,1,681
16,231,CBA,yes,1,576
16,232,ABA,no,1,901
16,233,ABA,yes,1,622
16,234,ABA,no,1,651
16,235,CBA,no,1,861
16,236,ABA,no,1,683
16,237,CBA,yes,1,673
16,238,ABA,yes,1,962
16,239,CBA,yes,1,743
16,240,ABA,no,1,1229
16,241,ABA,no,1,722
16,242,ABA,yes,1,520
16,243,ABA,no,1,684
16,244,CBA,yes,1,592
16,245,CBA,yes,1,500
16,246,ABA,yes,1,545
16,247,ABA,no,1,719
16,248,ABA,no,1,486
16,249,ABA,no,1,600
16,250,CBA,yes,1,547
16,251,CBA,no,1,562
16,252,ABA,yes,1,536
16,253,ABA,yes,1,540
16,254,ABA,no,1,822
16,255,ABA,no,1,531
16,256,ABA,no,1,575
16,257,ABA,no,1,525
16,258,CBA,no,0,499
16,259,CBA,no,1,490
16,260,CBA,no,1,861
16,261,ABA,yes,1,581
16,262,CBA,yes,1,611
16,263,CBA,no,1,574
16,264,ABA,no,1,696
16,265,CBA,no,1,750
16,266,ABA,no,1,541
16,267,CBA,no,1,790
16,268,CBA,no,1,762
16,269,CBA,no,1,875
16,270,CBA,yes,1,534
16,271,ABA,no,1,1337
16,272,CBA,no,1,676
16,273,CBA,no,1,625
16,274,CBA,no,1,636
16,275,CBA,no,1,685
16,276,ABA,yes,1,647
16,277,CBA,no,1,554
16,278,ABA,yes,1,629
16,279,CBA,yes,1,566
16,280,CBA,no,0,919
16,281,ABA,no,1,589
16,282,ABA,yes,1,1174
16,283,ABA,no,1,582
16,284,ABA,no,1,571
16,285,ABA,no,1,714
16,286,CBA,no,1,571
16,287,ABA,no,1,558
16,288,CBA,no,1,649
16,289,ABA,no,1,577
16,290,CBA,no,1,635
16,291,ABA,no,1,564
16,292,ABA,no,1,788
16,293,CBA,no,1,635
16,294,ABA,yes,1,1173
16,295,ABA,no,1,591
16,296,ABA,no,1,848
16,297,ABA,no,1,600
16,298,ABA,yes,1,693
16,299,ABA,no,1,802
16,300,ABA,no,1,1901
16,301,ABA,yes,1,1455
16,302,ABA,no,1,1791
16,303,CBA,yes,1,581
16,304,CBA,no,1,791
16,305,CBA,yes,1,754
16,306,ABA,no,0,784
16,307,CBA,no,1,954
16,308,ABA,yes,1,1147
16,309,CBA,no,1,2094
16,310,CBA,yes,1,545
16,311,ABA,no,1,826
16,312,CBA,no,1,958
16,313,ABA,yes,1,638
16,314,ABA,no,1,679
16,315,CBA,no,1,576
16,316,CBA,yes,1,906
16,317,ABA,no,1,811
16,318,ABA,yes,1,740
16,319,ABA,no,1,631
16,320,CBA,no,1,808
16,321,CBA,yes,1,763
16,322,ABA,yes,1,1895
16,323,ABA,no,1,1550
16,324,ABA,no,1,590
16,325,CBA,yes,1,641
16,326,ABA,no,1,576
16,327,ABA,no,1,907
16,328,CBA,no,1,1128
16,329,CBA,yes,1,632
16,330,ABA,no,1,1526
16,331,ABA,no,1,542
16,332,CBA,no,1,961
16,333,CBA,no,1,1081
16,334,CBA,no,1,644
16,335,ABA,no,1,717
16,336,CBA,no,1,736
16,337,CBA,no,1,921
16,338,CBA,yes,1,933
16,339,ABA,no,1,954
16,340,CBA,no,1,660
16,341,ABA,no,1,579
16,342,CBA,no,1,663
16,343,CBA,no,1,540
16,344,ABA,no,1,690
16,345,CBA,no,1,1044
16,346,CBA,yes,1,531
16,347,ABA,no,1,635
16,348,CBA,no,1,672
16,349,CBA,no,1,894
16,350,ABA,no,1,824
16,351,CBA,yes,1,677
16,352,ABA,no,1,1519
16,353,ABA,no,1,579
16,354,ABA,no,0,944
16,355,ABA,yes,1,896
16,356,CBA,no,1,595
16,357,CBA,yes,1,644
16,358,CBA,no,1,591
16,359,ABA,no,1,982
16,360,CBA,yes,1,596
16,361,ABA,no,1,925
16,362,CBA,no,1,651
16,363,ABA,no,1,630
16,364,CBA,no,1,523
16,365,ABA,no,1,529
16,366,ABA,no,1,553
16,367,CBA,no,1,475
16,368,ABA,no,0,779
16,369,ABA,no,1,533
16,370,ABA,yes,1,565
16,371,ABA,yes,1,527
16,372,CBA,no,1,580
16,373,ABA,yes,1,545
16,374,CBA,no,1,533
16,375,ABA,no,1,563
16,376,CBA,yes,1,845
16,377,ABA,no,1,554
16,378,ABA,no,1,599
16,379,ABA,no,1,617
16,380,CBA,no,1,698
16,381,ABA,no,1,529
16,382,ABA,no,1,839
16,383,ABA,yes,1,642
16,384,CBA,no,1,567
16,385,ABA,yes,1,532
16,386,ABA,no,1,1084
16,387,ABA,no,1,545
16,388,ABA,no,1,527
16,389,ABA,no,1,489
16,390,ABA,no,1,864
16,391,ABA,no,1,476
16,392,CBA,no,1,631
16,393,ABA,yes,1,527
16,394,ABA,yes,1,565
16,395,CBA,no,1,546
16,396,ABA,yes,1,578
16,397,CBA,no,1,582
16,398,CBA,yes,1,972
16,399,CBA,yes,1,595
16,400,CBA,yes,1,496
16,401,ABA,no,1,1034
16,402,ABA,no,1,486
16,403,ABA,yes,1,1086
16,404,CBA,no,1,689
16,405,ABA,no,1,1153
16,406,CBA,no,1,598
16,407,ABA,no,1,763
16,408,ABA,yes,1,817
16,409,ABA,no,1,652
16,410,ABA,no,1,793
16,411,ABA,no,1,629
16,412,CBA,no,1,615
16,413,CBA,no,1,471
16,414,ABA,no,1,518
16,415,ABA,no,1,492
16,416,ABA,no,1,929
16,417,ABA,no,1,887
16,418,CBA,no,1,586
16,419,CBA,no,1,641
16,420,CBA,no,1,1538
16,421,CBA,no,1,589
16,422,CBA,yes,1,494
16,423,CBA,yes,0,596
16,424,CBA,no,1,626
16,425,CBA,no,1,773
16,426,CBA,no,1,497
16,427,ABA,no,1,934
16,428,CBA,no,1,563
16,429,ABA,no,1,793
16,430,ABA,no,1,661
16,431,CBA,no,1,567
16,432,CBA,no,1,2672
16,433,CBA,no,1,538
16,434,ABA,no,1,1359
16,435,CBA,no,1,679
16,436,CBA,yes,1,1343
16,437,CBA,no,1,769
16,438,ABA,yes,1,1050
16,439,CBA,no,0,564
16,440,CBA,no,1,835
16,441,ABA,no,1,558
16,442,CBA,no,1,897
16,443,CBA,yes,1,673
16,444,CBA,no,1,633
16,445,CBA,no,1,1100
16,446,CBA,no,1,535
16,447,ABA,no,1,642
16,448,ABA,no,1,1074
16,449,ABA,no,1,850
16,450,ABA,no,1,762
16,451,ABA,no,1,871
16,452,ABA,no,1,719
16,453,CBA,yes,1,1042
16,454,CBA,yes,1,643
16,455,CBA,no,1,745
16,456,ABA,no,1,699
16,457,CBA,no,1,528
16,458,CBA,no,1,560
16,459,ABA,no,1,548
16,460,ABA,no,1,607
16,461,CBA,no,1,549
16,462,ABA,yes,1,712
16,463,ABA,no,1,674
16,464,ABA,no,1,861
16,465,ABA,yes,1,663
16,466,CBA,no,1,522
16,467,CBA,yes,1,1137
16,468,ABA,no,1,617
16,469,ABA,no,1,801
16,470,ABA,no,1,572
16,471,ABA,no,1,533
16,472,CBA,no,1,738
16,473,ABA,no,1,729
16,474,CBA,yes,1,530
16,475,ABA,yes,1,628
16,476,CBA,no,1,622
16,477,CBA,yes,1,738
16,478,CBA,no,1,620
16,479,CBA,yes,1,541
16,480,ABA,no,1,666
17,1,CBA,no,0,759
17,2,CBA,no,1,547
17,3,CBA,yes,1,866
17,4,CBA,no,1,1225
17,5,CBA,no,1,682
17,6,CBA,no,1,932
17,7,ABA,no,1,822
17,8,CBA,no,1,1051
17,9,ABA,no,1,922
17,10,ABA,no,1,892
17,11,CBA,no,1,996
17,12,CBA,no,1,928
17,13,CBA,no,1,903
17,14,ABA,yes,1,901
17,15,CBA,no,1,837
17,16,CBA,no,1,1067
17,17,ABA,yes,1,807
17,18,ABA,yes,0,770
17,19,CBA,yes,1,780
17,20,CBA,yes,1,962
17,21,ABA,no,1,889
17,22,CBA,no,1,757
17,23,ABA,no,1,677
17,24,ABA,no,1,762
17,25,CBA,no,1,743
17,26,CBA,yes,1,871
17,27,ABA,no,1,835
17,28,CBA,no,1,1481
17,29,CBA,no,1,770
17,30,ABA,no,1,1037
17,31,CBA,yes,1,767
17,32,ABA,no,1,1086
17,33,CBA,yes,1,707
17,34,ABA,yes,1,702
17,35,CBA,no,1,772
17,36,CBA,no,1,772
17,37,ABA,no,1,795
17,38,CBA,no,1,772
17,39,ABA,no,1,803
17,40,ABA,yes,1,1267
17,41,CBA,yes,1,1035
17,42,CBA,no,1,774
17,43,ABA,yes,1,844
17,44,ABA,no,1,906
17,45,ABA,yes,1,816
17,46,CBA,yes,1,1128
17,47,ABA,no,1,740
17,48,ABA,yes,1,956
17,49,CBA,yes,1,755
17,50,ABA,no,1,1067
17,51,ABA,no,1,792
17,52,ABA,yes,0,929
17,53,ABA,yes,1,1168
17,54,ABA,yes,0,844
17,55,ABA,no,1,773
17,56,CBA,yes,1,685
17,57,CBA,yes,1,722
17,58,CBA,no,1,850
17,59,ABA,yes,1,910
17,60,CBA,yes,1,845
17,61,CBA,yes,1,801
17,62,CBA,no,1,826
17,63,CBA,yes,1,793
17,64,CBA,no,1,784
17,65,ABA,no,1,791
17,66,CBA,no,1,793
17,67,CBA,no,1,882
17,68,CBA,no,1,745
17,69,CBA,yes,1,756
17,70,CBA,yes,1,835
17,71,ABA,no,1,1062
17,72,ABA,yes,1,842
17,73,ABA,yes,1,738
17,74,CBA,no,1,867
17,75,ABA,yes,1,717
17,76,CBA,no,1,630
17,77,ABA,no,1,1146
17,78,ABA,no,1,809
17,79,ABA,no,1,902
17,80,CBA,no,1,836
17,81,CBA,yes,1,879
17,82,ABA,yes,1,829
17,83,ABA,no,1,843
17,84,CBA,yes,1,888
17,85,CBA,yes,1,767
17,86,CBA,no,1,934
17,87,ABA,no,1,775
17,88,ABA,no,1,863
17,89,CBA,no,1,862
17,90,CBA,no,1,969
17,91,CBA,no,1,771
17,92,ABA,no,1,818
17,93,CBA,no,1,784
17,94,ABA,no,1,1289
17,95,ABA,no,1,1094
17,96,ABA,no,1,743
17,97,ABA,no,1,783
17,98,CBA,no,1,898
17,99,ABA,no,1,994
17,100,ABA,no,1,729
17,101,CBA,no,1,869
17,102,CBA,no,1,775
17,103,ABA,no,1,859
17,104,ABA,yes,1,797
17,105,CBA,yes,1,827
17,106,CBA,no,1,1168
17,107,ABA,no,1,746
17,108,CBA,yes,1,870
17,109,ABA,no,1,886
17,110,CBA,yes,1,809
17,111,ABA,no,1,930
17,112,CBA,yes,1,671
17,113,CBA,no,1,746
17,114,CBA,yes,1,718
17,115,CBA,no,1,962
17,116,ABA,yes,1,806
17,117,CBA,no,1,878
17,118,ABA,no,1,904
17,119,CBA,no,1,767
17,120,ABA,no,1,755
17,121,CBA,no,1,836
17,122,CBA,yes,1,567
17,123,CBA,no,1,808
17,124,CBA,no,1,687
17,125,CBA,no,1,594
17,126,ABA,no,1,970
17,127,CBA,yes,1,954
17,128,CBA,no,1,678
17,129,ABA,no,1,883
17,130,ABA,no,1,764
17,131,CBA,yes,1,668
17,132,CBA,no,1,803
17,133,ABA,yes,1,1171
17,134,CBA,no,1,613
17,135,ABA,no,1,712
17,136,CBA,no,1,1272
17,137,ABA,no,1,755
17,138,ABA,no,1,713
17,139,CBA,no,1,779
17,140,CBA,no,1,959
17,141,ABA,no,1,1061
17,142,ABA,no,1,852
17,143,CBA,no,1,764
17,144,ABA,no,1,1043
17,145,ABA,yes,1,687
17,146,ABA,no,0,775
17,147,CBA,no,1,816
17,148,ABA,no,1,805
17,149,CBA,no,1,986
17,150,CBA,yes,1,1109
17,151,ABA,no,0,2082
17,152,ABA,no,1,955
17,153,CBA,no,1,762
17,154,CBA,no,1,725
17,155,CBA,no,0,813
17,156,ABA,no,1,1049
17,157,ABA,no,1,1221
17,158,ABA,no,1,661
17,159,ABA,yes,1,644
17,160,ABA,yes,1,696
17,161,CBA,no,1,704
17,162,CBA,no,1,989
17,163,CBA,yes,1,770
17,164,CBA,no,1,697
17,165,CBA,no,1,835
17,166,ABA,yes,0,1229
17,167,ABA,yes,1,1314
17,168,CBA,no,1,763
17,169,ABA,no,1,930
17,170,CBA,no,1,808
17,171,CBA,no,1,1633
17,172,CBA,no,1,1686
17,173,ABA,no,1,739
17,174,ABA,no,1,1028
17,175,ABA,no,1,1218
17,176,ABA,yes,1,1711
17,177,CBA,no,1,706
17,178,ABA,no,1,765
17,179,CBA,no,1,713
17,180,ABA,yes,1,988
17,181,CBA,no,1,891
17,182,CBA,yes,1,876
17,183,CBA,no,1,713
17,184,CBA,no,1,825
17,185,CBA,no,1,931
17,186,ABA,yes,1,1041
17,187,ABA,no,1,665
17,188,CBA,no,1,662
17,189,CBA,yes,1,714
17,190,ABA,no,1,732
17,191,ABA,no,1,600
17,192,CBA,yes,1,571
17,193,CBA,yes,1,606
17,194,CBA,no,1,857
17,195,ABA,no,1,1046
17,196,CBA,no,1,665
17,197,CBA,no,1,1457
17,198,ABA,yes,1,697
17,199,ABA,no,1,618
17,200,ABA,no,1,1016
17,201,CBA,no,1,1464
17,202,CBA,yes,1,1173
17,203,CBA,no,1,692
17,204,ABA,yes,1,702
17,205,CBA,no,1,1935
17,206,CBA,no,1,741
17,207,ABA,no,1,1396
17,208,ABA,yes,1,605
17,209,CBA,yes,1,856
17,210,CBA,no,1,712
17,211,ABA,yes,1,836
17,212,ABA,no,0,1262
17,213,CBA,no,1,1231
17,214,ABA,no,1,724
17,215,ABA,no,1,805
17,216,ABA,yes,1,1241
17,217,ABA,no,1,658
17,218,ABA,no,1,798
17,219,CBA,no,1,786
17,220,CBA,no,1,1097
17,221,CBA,no,1,907
17,222,CBA,no,1,1643
17,223,CBA,no,1,997
17,224,CBA,yes,1,835
17,225,ABA,yes,1,753
17,226,CBA,no,1,685
17,227,CBA,yes,1,710
17,228,ABA,yes,1,1652
17,229,CBA,no,1,711
17,230,ABA,yes,1,727
17,231,ABA,no,1,734
17,232,ABA,no,1,736
17,233,ABA,no,1,1085
17,234,CBA,yes,1,833
17,235,ABA,no,1,714
17,236,CBA,yes,1,1017
17,237,ABA,no,1,1062
17,238,CBA,no,1,992
17,239,ABA,no,1,805
17,240,ABA,no,1,1304
17,241,CBA,yes,1,671
17,242,CBA,no,1,636
17,243,CBA,yes,1,647
17,244,ABA,yes,1,667
17,245,ABA,no,1,704
17,246,ABA,no,1,659
17,247,CBA,yes,1,648
17,248,ABA,no,1,608
17,249,CBA,no,1,668
17,250,ABA,yes,1,642
17,251,ABA,no,1,882
17,252,CBA,no,1,762
17,253,CBA,yes,1,613
17,254,ABA,no,1,585
17,255,ABA,no,1,672
17,256,ABA,no,1,944
17,257,CBA,no,1,708
17,258,ABA,yes,1,606
17,259,ABA,no,1,604
17,260,CBA,no,1,661
17,261,ABA,no,1,1096
17,262,ABA,no,1,602
17,263,CBA,no,1,821
17,264,ABA,no,1,769
17,265,ABA,no,1,537
17,266,CBA,no,1,1279
17,267,CBA,no,1,633
17,268,CBA,no,1,687
17,269,CBA,no,1,1065
17,270,ABA,no,1,522
17,271,CBA,no,1,610
17,272,ABA,yes,1,499
17,273,ABA,no,1,637
17,274,CBA,yes,1,1145
17,275,ABA,no,1,758
17,276,ABA,no,1,1266
17,277,CBA,no,1,749
17,278,ABA,no,1,1846
17,279,CBA,yes,1,618
17,280,ABA,yes,1,1044
17,281,CBA,no,1,692
17,282,ABA,no,1,777
17,283,CBA,no,1,641
17,284,CBA,no,1,1025
17,285,CBA,no,1,659
17,286,CBA,yes,1,1489
17,287,ABA,no,1,614
17,288,CBA,no,1,674
17,289,ABA,no,1,974
17,290,CBA,yes,1,1006
17,291,ABA,no,1,634
17,292,ABA,no,1,1337
17,293,ABA,no,1,627
17,294,ABA,no,1,665
17,295,ABA,no,1,901
17,296,ABA,no,1,654
17,297,CBA,yes,1,613
17,298,CBA,no,1,2183
17,299,CBA,no,1,619
17,300,CBA,yes,1,587
17,301,CBA,yes,1,630
17,302,CBA,no,1,654
17,303,CBA,no,1,551
17,304,CBA,no,1,620
17,305,CBA,no,1,571
17,306,ABA,no,1,631
17,307,CBA,no,1,696
17,308,CBA,no,1,1224
17,309,ABA,no,1,616
17,310,ABA,yes,1,787
17,311,CBA,yes,1,620
17,312,CBA,no,1,678
17,313,CBA,no,1,605
17,314,ABA,no,1,752
17,315,CBA,no,1,627
17,316,ABA,no,1,541
17,317,ABA,no,1,783
17,318,ABA,no,1,977
17,319,CBA,yes,1,681
17,320,ABA,yes,1,914
17,321,ABA,yes,1,582
17,322,CBA,no,1,1422
17,323,CBA,yes,1,561
17,324,CBA,yes,1,618
17,325,ABA,no,1,795
17,326,CBA,no,1,933
17,327,ABA,yes,1,670
17,328,CBA,no,1,600
17,329,ABA,no,1,838
17,330,CBA,no,1,923
17,331,CBA,no,1,1021
17,332,CBA,no,1,1617
17,333,CBA,no,1,601
17,334,CBA,yes,1,1146
17,335,CBA,no,1,585
17,336,CBA,no,1,841
17,337,ABA,no,1,900
17,338,CBA,no,1,550
17,339,ABA,no,1,576
17,340,ABA,no,1,614
17,341,ABA,no,1,570
17,342,ABA,yes,1,620
17,343,ABA,yes,1,1171
17,344,ABA,no,1,882
17,345,CBA,no,1,601
17,346,ABA,yes,1,776
17,347,ABA,no,1,746
17,348,ABA,no,1,689
17,349,CBA,no,1,601
17,350,CBA,no,1,1038
17,351,CBA,no,1,600
17,352,ABA,yes,1,898
17,353,CBA,no,1,599
17,354,CBA,yes,1,795
17,355,CBA,yes,1,984
17,356,ABA,no,1,825
17,357,CBA,no,1,1078
17,358,CBA,no,1,632
17,359,CBA,no,1,1819
17,360,ABA,no,1,884
17,361,CBA,no,1,615
17,362,ABA,no,1,578
17,363,ABA,no,1,926
17,364,CBA,no,1,560
17,365,CBA,no,1,578
17,366,CBA,yes,1,666
17,367,ABA,no,1,549
17,368,CBA,no,1,501
17,369,CBA,no,1,1220
17,370,ABA,yes,1,910
17,371,CBA,no,1,822
17,372,CBA,no,1,610
17,373,ABA,no,1,678
17,374,ABA,no,1,681
17,375,CBA,no,1,608
17,376,CBA,yes,1,924
17,377,CBA,no,1,533
17,378,ABA,no,1,1314
17,379,CBA,no,1,572
17,380,ABA,no,0,706
17,381,CBA,no,1,601
17,382,CBA,yes,1,541
17,383,CBA,no,1,1347
17,384,ABA,no,1,563
17,385,CBA,no,1,513
17,386,CBA,no,1,521
17,387,ABA,no,1,572
17,388,CBA,no,1,636
17,389,ABA,no,1,879
17,390,ABA,no,1,533
17,391,ABA,no,1,1155
17,392,CBA,yes,1,1603
17,393,CBA,no,1,589
17,394,CBA,no,1,1131
17,395,ABA,no,1,522
17,396,CBA,no,1,572
17,397,ABA,yes,1,596
17,398,CBA,yes,1,521
17,399,CBA,no,1,585
17,400,CBA,no,1,591
17,401,CBA,no,1,697
17,402,ABA,no,1,1539
17,403,CBA,no,1,1141
17,404,CBA,no,1,656
17,405,ABA,no,1,703
17,406,CBA,no,1,909
17,407,CBA,yes,1,886
17,408,CBA,no,1,1241
17,409,CBA,no,1,642
17,410,ABA,no,1,1062
17,411,ABA,no,1,607
17,412,ABA,no,1,747
17,413,ABA,no,1,679
17,414,CBA,no,1,552
17,415,ABA,no,1,1046
17,416,ABA,yes,1,575
17,417,CBA,no,1,828
17,418,CBA,no,1,1307
17,419,CBA,yes,1,969
17,420,CBA,no,1,515
17,421,CBA,yes,1,653
17,422,ABA,no,1,974
17,423,ABA,no,1,586
17,424,CBA,no,1,655
17,425,CBA,no,1,539
17,426,ABA,no,1,939
17,427,ABA,no,1,1024
17,428,ABA,yes,1,585
17,429,ABA,no,1,1107
17,430,ABA,no,1,767
17,431,CBA,no,1,622
17,432,CBA,no,1,527
17,433,CBA,no,1,590
17,434,CBA,yes,1,676
17,435,ABA,no,1,707
17,436,CBA,yes,1,721
17,437,ABA,yes,1,775
17,438,ABA,yes,1,1575
17,439,ABA,no,1,512
17,440,CBA,no,1,511
17,441,CBA,no,1,635
17,442,ABA,yes,1,618
17,443,CBA,no,1,634
17,444,CBA,no,1,1054
17,445,CBA,no,1,676
17,446,ABA,no,1,567
17,447,ABA,no,1,749
17,448,CBA,no,1,657
17,449,CBA,no,1,884
17,450,ABA,no,1,912
17,451,CBA,no,1,628
17,452,CBA,no,1,796
17,453,ABA,yes,1,832
17,454,CBA,no,1,1127
17,455,CBA,yes,1,566
17,456,ABA,no,1,492
17,457,ABA,no,1,583
17,458,ABA,yes,1,619
17,459,ABA,no,0,494
17,460,CBA,no,1,567
17,461,ABA,no,1,831
17,462,CBA,no,1,566
17,463,ABA,yes,1,541
17,464,CBA,no,1,591
17,465,CBA,no,1,555
17,466,ABA,yes,1,566
17,467,ABA,no,1,852
17,468,CBA,yes,1,603
17,469,CBA,no,1,1249
17,470,CBA,yes,1,888
17,471,ABA,no,1,922
17,472,ABA,no,1,1104
17,473,ABA,no,1,576
17,474,ABA,no,1,1745
17,475,CBA,no,1,737
17,476,ABA,no,1,998
17,477,CBA,yes,1,1343
17,478,CBA,no,1,2575
17,479,ABA,no,1,687
17,480,CBA,no,1,845
18,1,CBA,no,1,720
18,2,CBA,no,1,1146
18,3,ABA,no,1,820
18,4,CBA,yes,1,855
18,5,CBA,yes,1,1670
18,6,CBA,no,1,703
18,7,ABA,no,1,1125
18,8,CBA,no,1,1225
18,9,ABA,no,1,1155
18,10,CBA,no,1,822
18,11,CBA,no,1,1184
18,12,ABA,no,1,713
18,13,CBA,no,1,989
18,14,CBA,no,1,1467
18,15,CBA,yes,1,601
18,16,CBA,no,1,646
18,17,ABA,yes,1,591
18,18,ABA,no,1,614
18,19,ABA,no,1,522
18,20,ABA,no,1,964
18,21,CBA,no,1,1526
18,22,CBA,no,1,564
18,23,ABA,yes,1,955
18,24,CBA,no,1,724
18,25,CBA,no,1,633
18,26,ABA,yes,1,632
18,27,CBA,yes,1,690
18,28,ABA,no,1,825
18,29,CBA,no,1,645
18,30,CBA,no,1,696
18,31,CBA,yes,1,885
18,32,CBA,yes,1,589
18,33,ABA,no,1,763
18,34,CBA,no,1,602
18,35,ABA,no,1,655
18,36,CBA,no,1,631
18,37,ABA,no,1,925
18,38,CBA,no,1,630
18,39,ABA,no,1,939
18,40,ABA,no,1,929
18,41,ABA,no,1,1344
18,42,CBA,yes,1,585
18,43,ABA,no,1,522
18,44,ABA,yes,1,487
18,45,ABA,yes,1,626
18,46,ABA,no,1,589
18,47,CBA,no,1,637
18,48,CBA,yes,1,689
18,49,ABA,no,1,1766
18,50,CBA,no,1,931
18,51,CBA,no,1,545
18,52,ABA,no,1,622
18,53,CBA,yes,0,757
18,54,CBA,no,1,667
18,55,ABA,yes,1,625
18,56,CBA,no,1,617
18,57,CBA,yes,1,542
18,58,CBA,no,1,908
18,59,ABA,yes,1,1292
18,60,ABA,no,1,1380
18,61,ABA,no,1,704
18,62,ABA,yes,1,1320
18,63,ABA,no,1,969
18,64,CBA,no,1,749
18,65,ABA,no,1,791
18,66,ABA,no,1,725
18,67,CBA,no,1,1440
18,68,CBA,yes,1,908
18,69,CBA,yes,1,946
18,70,CBA,no,1,842
18,71,ABA,yes,1,709
18,72,ABA,no,1,1028
18,73,ABA,no,1,579
18,74,ABA,yes,1,2050
18,75,CBA,yes,1,1175
18,76,CBA,no,1,733
18,77,CBA,no,1,1502
18,78,CBA,no,1,759
18,79,ABA,no,1,1311
18,80,CBA,no,1,778
18,81,CBA,no,1,997
18,82,CBA,no,1,1054
18,83,CBA,no,1,652
18,84,CBA,no,1,625
18,85,CBA,no,1,1684
18,86,ABA,no,1,819
18,87,ABA,no,1,1002
18,88,ABA,yes,1,808
18,89,CBA,no,1,862
18,90,ABA,yes,1,830
18,91,CBA,no,1,758
18,92,ABA,yes,1,1231
18,93,ABA,no,1,878
18,94,CBA,no,1,810
18,95,ABA,no,1,1081
18,96,CBA,no,1,859
18,97,ABA,no,1,2259
18,98,CBA,no,1,534
18,99,ABA,yes,1,1488
18,100,CBA,no,1,686
18,101,ABA,no,1,1660
18,102,ABA,no,1,809
18,103,CBA,yes,1,587
18,104,CBA,no,1,731
18,105,ABA,no,1,631
18,106,ABA,no,1,1303
18,107,CBA,yes,1,636
18,108,CBA,no,1,537
18,109,CBA,yes,1,896
18,110,CBA,yes,1,1045
18,111,ABA,yes,1,864
18,112,CBA,no,1,515
18,113,CBA,no,1,539
18,114,CBA,yes,1,1232
18,115,ABA,no,1,707
18,116,ABA,no,1,1234
18,117,ABA,yes,0,1139
18,118,ABA,no,1,925
18,119,ABA,no,1,2165
18,120,CBA,no,1,963
18,121,ABA,no,1,565
18,122,CBA,no,1,572
18,123,CBA,no,1,602
18,124,CBA,no,1,530
18,125,CBA,yes,1,987
18,126,ABA,yes,1,598
18,127,ABA,no,1,666
18,128,ABA,yes,1,643
18,129,CBA,no,1,697
18,130,CBA,no,1,704
18,131,CBA,no,1,542
18,132,ABA,no,1,622
18,133,CBA,no,1,517
18,134,ABA,no,0,651
18,135,ABA,yes,1,567
18,136,CBA,no,1,536
18,137,ABA,yes,1,531
18,138,ABA,no,1,589
18,139,ABA,no,1,824
18,140,CBA,no,1,683
18,141,CBA,no,1,607
18,142,CBA,no,1,649
18,143,CBA,no,1,1003
18,144,ABA,no,1,1018
18,145,CBA,yes,1,686
18,146,CBA,no,1,719
18,147,ABA,no,1,828
18,148,CBA,no,1,545
18,149,ABA,no,1,1424
18,150,ABA,no,1,501
18,151,ABA,no,0,888
18,152,CBA,no,1,890
18,153,CBA,yes,1,607
18,154,ABA,yes,1,943
18,155,ABA,no,1,676
18,156,ABA,yes,1,684
18,157,CBA,yes,0,492
18,158,ABA,no,1,1132
18,159,CBA,no,1,587
18,160,CBA,no,1,678
18,161,ABA,yes,1,728
18,162,CBA,no,1,689
18,163,CBA,no,1,878
18,164,CBA,no,1,582
18,165,ABA,no,1,861
18,166,CBA,no,1,895
18,167,ABA,no,1,740
18,168,CBA,no,1,674
18,169,ABA,no,1,618
18,170,ABA,no,1,630
18,171,ABA,no,1,1576
18,172,CBA,no,1,2421
18,173,ABA,no,1,916
18,174,ABA,no,1,858
18,175,ABA,yes,1,2035
18,176,CBA,no,1,615
18,177,ABA,no,1,1664
18,178,CBA,no,1,1776
18,179,CBA,no,1,1103
18,180,CBA,no,1,768
18,181,ABA,yes,1,728
18,182,ABA,no,1,728
18,183,ABA,no,1,638
18,184,CBA,no,1,699
18,185,ABA,no,1,674
18,186,ABA,no,1,1368
18,187,CBA,no,1,1556
18,188,CBA,yes,1,867
18,189,ABA,no,1,782
18,190,ABA,yes,1,680
18,191,CBA,no,1,669
18,192,ABA,yes,1,565
18,193,ABA,yes,1,474
18,194,CBA,no,1,1110
18,195,CBA,no,1,523
18,196,CBA,no,1,1551
18,197,ABA,no,1,628
18,198,ABA,no,1,633
18,199,ABA,no,1,581
18,200,ABA,no,1,1263
18,201,CBA,no,1,710
18,202,ABA,no,1,741
18,203,CBA,yes,1,850
18,204,ABA,no,1,723
18,205,ABA,no,1,660
18,206,ABA,no,1,595
18,207,ABA,no,1,573
18,208,CBA,no,1,878
18,209,ABA,yes,1,942
18,210,CBA,no,1,1071
18,211,ABA,yes,1,539
18,212,CBA,no,1,604
18,213,ABA,no,1,736
18,214,CBA,no,1,1301
18,215,ABA,no,1,926
18,216,ABA,no,1,902
18,217,ABA,no,1,751
18,218,CBA,no,1,1313
18,219,ABA,yes,1,948
18,220,ABA,yes,1,921
18,221,CBA,yes,1,1119
18,222,ABA,no,1,643
18,223,ABA,no,1,660
18,224,ABA,no,0,1499
18,225,ABA,no,1,774
18,226,ABA,no,1,849
18,227,ABA,yes,1,1117
18,228,ABA,yes,1,706
18,229,CBA,no,1,680
18,230,ABA,no,1,941
18,231,ABA,no,1,591
18,232,ABA,no,1,1006
18,233,ABA,no,1,944
18,234,ABA,no,1,617
18,235,ABA,no,1,863
18,236,ABA,no,1,695
18,237,ABA,no,1,968
18,238,CBA,yes,1,1028
18,239,CBA,yes,1,1029
18,240,ABA,no,1,1185
18,241,CBA,no,1,537
18,242,CBA,no,1,407
18,243,ABA,no,1,690
18,244,CBA,no,1,762
18,245,ABA,no,1,461
18,246,CBA,no,1,533
18,247,ABA,no,0,680
18,248,ABA,no,1,466
18,249,CBA,no,1,593
18,250,CBA,no,1,498
18,251,CBA,no,1,632
18,252,ABA,yes,1,586
18,253,CBA,no,1,653
18,254,CBA,no,1,728
18,255,CBA,no,1,579
18,256,ABA,no,1,543
18,257,ABA,no,1,882
18,258,ABA,yes,1,782
18,259,ABA,no,1,579
18,260,CBA,yes,1,717
18,261,ABA,yes,1,885
18,262,ABA,no,0,851
18,263,ABA,no,1,620
18,264,ABA,yes,1,627
18,265,ABA,no,1,598
18,266,ABA,yes,0,634
18,267,CBA,no,1,1076
18,268,ABA,yes,1,1002
18,269,ABA,no,1,524
18,270,CBA,yes,1,574
18,271,ABA,no,1,779
18,272,ABA,yes,1,525
18,273,CBA,yes,1,598
18,274,ABA,no,1,562
18,275,CBA,no,1,648
18,276,ABA,no,1,763
18,277,ABA,no,1,550
18,278,CBA,no,1,973
18,279,CBA,yes,1,570
18,280,CBA,no,1,937
18,281,ABA,no,1,979
18,282,CBA,yes,1,557
18,283,ABA,no,1,647
18,284,ABA,yes,1,1192
18,285,ABA,yes,1,884
18,286,ABA,no,1,1153
18,287,ABA,no,1,549
18,288,ABA,no,1,848
18,289,ABA,no,1,699
18,290,CBA,no,1,671
18,291,CBA,no,1,642
18,292,CBA,no,1,645
18,293,ABA,no,1,988
18,294,CBA,no,1,1277
18,295,ABA,no,1,748
18,296,ABA,no,1,969
18,297,ABA,no,1,906
18,298,CBA,yes,1,485
18,299,CBA,yes,1,646
18,300,ABA,no,1,550
18,301,CBA,no,1,789
18,302,CBA,yes,1,531
18,303,ABA,no,1,729
18,304,CBA,no,1,620
18,305,CBA,no,1,803
18,306,ABA,no,1,479
18,307,CBA,no,1,547
18,308,CBA,no,1,974
18,309,CBA,yes,1,633
18,310,CBA,no,1,1015
18,311,ABA,no,1,504
18,312,CBA,yes,1,481
18,313,CBA,no,1,941
18,314,CBA,no,1,528
18,315,ABA,no,1,724
18,316,CBA,no,1,589
18,317,ABA,yes,1,710
18,318,CBA,no,1,514
18,319,ABA,no,1,1682
18,320,CBA,yes,1,863
18,321,CBA,yes,1,472
18,322,ABA,yes,1,595
18,323,CBA,yes,1,677
18,324,CBA,no,1,607
18,325,ABA,yes,1,1097
18,326,ABA,yes,1,715
18,327,ABA,no,0,690
18,328,ABA,yes,1,695
18,329,CBA,no,1,1172
18,330,ABA,no,1,853
18,331,ABA,no,0,570
18,332,ABA,no,1,536
18,333,CBA,yes,1,936
18,334,ABA,no,1,752
18,335,CBA,no,1,519
18,336,ABA,no,1,584
18,337,ABA,no,1,923
18,338,CBA,no,1,1678
18,339,CBA,no,1,508
18,340,CBA,no,1,569
18,341,CBA,no,1,1380
18,342,CBA,no,1,648
18,343,CBA,yes,1,655
18,344,CBA,yes,1,617
18,345,ABA,no,1,670
18,346,CBA,no,1,513
18,347,ABA,no,1,575
18,348,CBA,yes,1,734
18,349,ABA,no,1,532
18,350,ABA,yes,1,1598
18,351,CBA,no,1,699
18,352,CBA,no,1,1191
18,353,ABA,no,1,1690
18,354,ABA,no,1,778
18,355,ABA,no,1,482
18,356,CBA,no,0,669
18,357,CBA,no,1,992
18,358,ABA,no,1,1211
18,359,CBA,no,1,641
18,360,ABA,no,1,1194
18,361,ABA,yes,1,531
18,362,ABA,yes,1,468
18,363,CBA,no,1,492
18,364,CBA,no,1,488
18,365,ABA,yes,1,749
18,366,CBA,no,1,923
18,367,CBA,no,1,485
18,368,CBA,no,1,554
18,369,ABA,no,1,537
18,370,ABA,no,1,675
18,371,ABA,no,1,735
18,372,CBA,yes,1,548
18,373,ABA,yes,1,545
18,374,ABA,no,1,512
18,375,CBA,yes,1,478
18,376,ABA,no,1,829
18,377,CBA,no,1,630
18,378,CBA,no,0,781
18,379,CBA,no,1,865
18,380,CBA,yes,1,732
18,381,CBA,no,0,579
18,382,ABA,no,1,501
18,383,CBA,yes,1,585
18,384,ABA,no,1,556
18,385,CBA,no,1,443
18,386,ABA,yes,1,558
18,387,CBA,no,1,1402
18,388,ABA,no,1,659
18,389,CBA,yes,1,487
18,390,ABA,no,1,869
18,391,ABA,no,1,609
18,392,ABA,yes,1,704
18,393,CBA,no,1,666
18,394,CBA,no,1,639
18,395,ABA,yes,1,665
18,396,ABA,no,1,823
18,397,ABA,yes,1,841
18,398,ABA,no,1,715
18,399,ABA,no,1,724
18,400,CBA,no,1,588
18,401,ABA,no,1,625
18,402,CBA,yes,1,559
18,403,CBA,no,1,633
18,404,ABA,no,1,559
18,405,ABA,yes,1,545
18,406,CBA,no,1,641
18,407,ABA,no,1,533
18,408,CBA,no,1,758
18,409,CBA,no,1,781
18,410,ABA,no,1,567
18,411,CBA,no,1,556
18,412,ABA,yes,1,567
18,413,CBA,no,1,600
18,414,CBA,no,1,554
18,415,ABA,no,1,623
18,416,CBA,no,1,736
18,417,CBA,yes,1,561
18,418,CBA,no,1,1359
18,419,CBA,no,1,631
18,420,CBA,no,0,585
18,421,CBA,no,1,590
18,422,ABA,no,1,539
18,423,CBA,no,1,792
18,424,CBA,no,1,615
18,425,ABA,no,1,912
18,426,CBA,no,1,588
18,427,CBA,no,1,1171
18,428,ABA,no,1,897
18,429,CBA,no,1,470
18,430,CBA,no,1,612
18,431,CBA,no,1,454
18,432,CBA,no,1,500
18,433,CBA,yes,1,952
18,434,ABA,yes,1,524
18,435,CBA,no,1,643
18,436,ABA,no,1,1043
18,437,CBA,yes,1,868
18,438,CBA,no,1,666
18,439,CBA,yes,1,473
18,440,ABA,no,1,762
18,441,ABA,no,1,629
18,442,ABA,no,1,1082
18,443,ABA,no,1,1075
18,444,ABA,yes,1,498
18,445,ABA,no,1,592
18,446,CBA,no,1,599
18,447,CBA,no,1,547
18,448,CBA,no,1,550
18,449,ABA,no,1,665
18,450,CBA,no,1,782
18,451,CBA,no,1,580
18,452,CBA,no,1,633
18,453,CBA,no,1,1418
18,454,CBA,no,1,720
18,455,CBA,no,1,1568
18,456,ABA,no,1,908
18,457,ABA,no,1,526
18,458,CBA,no,1,506
18,459,ABA,no,1,912
18,460,CBA,no,1,559
18,461,CBA,no,1,690
18,462,CBA,no,1,634
18,463,ABA,yes,1,1064
18,464,ABA,yes,1,615
18,465,ABA,no,1,956
18,466,ABA,yes,1,608
18,467,ABA,no,1,1022
18,468,ABA,no,1,529
18,469,ABA,yes,1,566
18,470,ABA,no,1,709
18,471,CBA,no,1,592
18,472,ABA,yes,1,903
18,473,CBA,no,1,508
18,474,ABA,yes,1,941
18,475,ABA,no,0,710
18,476,ABA,no,1,497
18,477,ABA,yes,1,410
18,478,ABA,yes,1,462
18,479,ABA,no,1,1072
18,480,ABA,no,1,644
19,1,CBA,no,1,971
19,2,CBA,no,1,965
19,3,ABA,yes,1,1441
19,4,CBA,no,1,1642
19,5,CBA,no,1,937
19,6,CBA,no,1,3526
19,7,ABA,no,1,1015
19,8,ABA,no,1,1541
19,9,ABA,no,1,1413
19,10,ABA,no,1,1726
19,11,ABA,no,1,1753
19,12,CBA,no,1,2281
19,13,CBA,no,1,1718
19,14,CBA,no,1,1077
19,15,ABA,no,1,2541
19,16,CBA,yes,1,2325
19,17,ABA,no,1,1224
19,18,ABA,no,1,1255
19,19,ABA,no,1,2608
19,20,ABA,no,1,2993
19,21,CBA,no,1,1486
19,22,ABA,no,1,1890
19,23,ABA,no,1,2856
19,24,CBA,no,1,3064
19,25,ABA,no,1,1043
19,26,ABA,no,1,1357
19,27,CBA,no,1,3159
19,28,ABA,no,1,2228
19,29,ABA,no,1,1722
19,30,ABA,no,1,1403
19,31,CBA,no,1,1366
19,32,CBA,no,1,2178
19,33,CBA,no,0,1909
19,34,CBA,yes,1,2405
19,35,CBA,no,1,3225
19,36,CBA,no,1,934
19,37,ABA,no,0,2130
19,38,CBA,no,1,898
19,39,ABA,yes,1,2265
19,40,ABA,no,1,1000
19,41,CBA,no,1,906
19,42,CBA,yes,1,1547
19,43,ABA,no,1,1209
19,44,CBA,no,1,1076
19,45,CBA,no,1,1296
19,46,ABA,no,1,1357
19,47,ABA,no,1,1811
19,48,CBA,no,1,1441
19,49,ABA,yes,1,2030
19,50,CBA,yes,1,1645
19,51,CBA,no,0,1873
19,52,CBA,no,1,2475
19,53,CBA,no,1,1174
19,54,CBA,no,1,1164
19,55,ABA,no,1,1161
19,56,CBA,no,1,1168
19,57,ABA,no,1,1611
19,58,ABA,yes,1,2669
19,59,ABA,yes,1,958
19,60,CBA,no,1,2161
19,61,ABA,no,1,1170
19,62,CBA,no,1,1207
19,63,CBA,yes,1,1292
19,64,CBA,no,1,1170
19,65,CBA,no,1,1629
19,66,CBA,no,1,3373
19,67,ABA,no,1,2371
19,68,ABA,no,1,2737
19,69,ABA,no,0,4537
19,70,CBA,no,1,858
19,71,ABA,no,0,2314
19,72,CBA,no,1,2162
19,73,CBA,no,1,1011
19,74,CBA,no,1,1514
19,75,ABA,yes,1,1139
19,76,ABA,yes,0,1696
19,77,ABA,no,1,957
19,78,ABA,yes,1,2234
19,79,ABA,no,1,976
19,80,ABA,yes,1,825
19,81,CBA,yes,1,940
19,82,ABA,no,1,2174
19,83,ABA,yes,1,1193
19,84,ABA,no,1,1510
19,85,CBA,no,1,1213
19,86,CBA,no,1,2360
19,87,ABA,no,1,1762
19,88,ABA,no,1,1399
19,89,ABA,no,1,1130
19,90,ABA,no,1,1085
19,91,CBA,no,1,1536
19,92,ABA,no,1,1459
19,93,CBA,no,1,1550
19,94,ABA,no,1,2034
19,95,ABA,yes,1,1423
19,96,CBA,no,1,1349
19,97,CBA,no,1,1196
19,98,CBA,yes,1,1279
19,99,ABA,no,1,1887
19,100,ABA,no,1,2058
19,101,CBA,no,1,2020
19,102,ABA,yes,1,1415
19,103,CBA,no,1,951
19,104,ABA,no,1,1286
19,105,ABA,no,1,3662
19,106,ABA,no,1,1431
19,107,ABA,no,1,5666
19,108,CBA,no,0,909
19,109,ABA,no,1,1226
19,110,CBA,no,1,1389
19,111,CBA,yes,1,1389
19,112,ABA,yes,1,1546
19,113,ABA,no,1,4009
19,114,CBA,no,1,990
19,115,ABA,no,1,4171
19,116,CBA,no,1,963
19,117,CBA,yes,1,1493
19,118,ABA,no,1,1739
19,119,CBA,no,1,1546
19,120,ABA,no,1,1731
19,121,CBA,no,1,2795
19,122,ABA,no,1,717
19,123,CBA,no,1,1470
19,124,CBA,no,1,1485
19,125,CBA,yes,1,731
19,126,ABA,no,1,1162
19,127,ABA,no,1,903
19,128,CBA,no,1,1612
19,129,CBA,no,1,1657
19,130,CBA,no,1,1454
19,131,CBA,no,1,2299
19,132,ABA,no,1,1128
19,133,ABA,no,1,1150
19,134,CBA,no,1,1561
19,135,CBA,no,1,1448
19,136,CBA,yes,1,1262
19,137,ABA,no,1,1433
19,138,ABA,no,1,2116
19,139,ABA,no,1,1987
