subject,trial,condition,task,sequence,curRCI,prevRCI,ratio,rciChange,rt,accuracy,errorTrimming
12,1,Memory,form,null,50,1000,20,different,2171,1,1
12,2,Memory,form,repeat,50,50,1,same,1012,1,1
12,3,Memory,form,repeat,1000,50,0.05,different,3719,1,1
12,4,Memory,colour,switch,50,1000,20,different,1770,1,1
12,5,Memory,colour,repeat,1000,50,0.05,different,1914,1,1
12,6,Memory,colour,repeat,50,1000,20,different,3237,1,1
12,7,Memory,form,switch,1000,50,0.05,different,2343,1,1
12,8,Memory,colour,switch,50,1000,20,different,1399,1,1
12,9,Memory,colour,repeat,50,50,1,same,1391,1,1
12,10,Memory,colour,repeat,1000,50,0.05,different,1650,1,1
12,11,Memory,form,switch,50,1000,20,different,784,0,1
12,12,Memory,colour,switch,50,50,1,same,2617,1,0
12,13,Memory,colour,repeat,1000,50,0.05,different,2864,1,1
12,14,Memory,form,switch,50,1000,20,different,4966,1,1
12,15,Memory,form,repeat,1000,50,0.05,different,2963,1,1
12,16,Memory,colour,switch,50,1000,20,different,2218,1,1
12,17,Memory,form,switch,1000,50,0.05,different,2244,1,1
12,18,Memory,colour,switch,1000,1000,1,same,811,1,1
12,19,Memory,colour,repeat,50,1000,20,different,1674,0,1
12,20,Memory,colour,repeat,1000,50,0.05,different,2548,1,0
12,21,Memory,colour,repeat,1000,1000,1,same,1487,0,1
12,22,Memory,colour,repeat,1000,1000,1,same,1942,1,0
12,23,Memory,colour,repeat,1000,1000,1,same,2053,0,1
12,24,Memory,form,switch,50,1000,20,different,3843,1,0
12,25,Memory,form,repeat,1000,50,0.05,different,2061,1,1
12,26,Memory,colour,switch,1000,1000,1,same,1046,1,1
12,27,Memory,form,switch,50,1000,20,different,1549,1,1
12,28,Memory,form,repeat,1000,50,0.05,different,2589,1,1
12,29,Memory,form,repeat,50,1000,20,different,2801,1,1
12,30,Memory,colour,switch,50,50,1,same,1875,0,1
12,31,Memory,form,switch,1000,50,0.05,different,1342,0,0
12,32,Memory,form,repeat,50,1000,20,different,1513,1,0
12,33,Memory,colour,switch,1000,50,0.05,different,1991,1,1
12,34,Memory,colour,repeat,1000,1000,1,same,1063,1,1
12,35,Memory,colour,repeat,50,1000,20,different,1296,1,1
12,36,Memory,colour,repeat,1000,50,0.05,different,2963,0,1
12,37,Memory,form,switch,50,1000,20,different,1043,0,0
12,38,Memory,form,repeat,1000,50,0.05,different,868,1,0
12,39,Memory,colour,switch,50,1000,20,different,1436,1,1
12,40,Memory,form,switch,1000,50,0.05,different,991,1,1
12,41,Memory,colour,switch,50,1000,20,different,1479,0,1
12,42,Memory,colour,repeat,50,50,1,same,946,0,0
12,43,Memory,colour,repeat,1000,50,0.05,different,579,0,0
12,44,Memory,colour,repeat,50,1000,20,different,1081,1,0
12,45,Memory,form,switch,50,50,1,same,1287,1,1
12,46,Memory,form,repeat,50,50,1,same,917,1,1
12,47,Memory,form,repeat,1000,50,0.05,different,946,1,1
12,48,Memory,form,repeat,50,1000,20,different,911,0,1
12,49,Memory,form,repeat,1000,50,0.05,different,503,0,0
12,50,Memory,form,repeat,50,1000,20,different,844,1,0
12,51,Memory,colour,switch,50,50,1,same,1370,0,1
12,52,Memory,form,switch,50,50,1,same,1107,0,0
12,53,Memory,colour,switch,50,50,1,same,1412,1,0
12,54,Memory,form,switch,50,50,1,same,844,0,1
12,55,Memory,colour,switch,50,50,1,same,1591,1,0
12,56,Memory,colour,repeat,1000,50,0.05,different,1114,1,1
12,57,Memory,form,switch,1000,1000,1,same,967,1,1
12,58,Memory,form,repeat,50,1000,20,different,1028,1,1
12,59,Memory,colour,switch,1000,50,0.05,different,646,0,1
12,60,Memory,form,switch,1000,1000,1,same,503,1,0
12,61,Memory,form,repeat,1000,1000,1,same,654,1,1
12,62,Memory,form,repeat,1000,1000,1,same,1191,1,1
12,63,Memory,form,repeat,50,1000,20,different,1752,1,1
12,64,Memory,colour,switch,1000,50,0.05,different,1128,0,1
12,65,Memory,colour,null,50,1000,20,different,1851,1,0
12,66,Memory,colour,repeat,50,50,1,same,3495,1,1
12,67,Memory,colour,repeat,50,50,1,same,1618,0,1
12,68,Memory,colour,repeat,50,50,1,same,1841,0,0
12,69,Memory,form,switch,50,50,1,same,1509,1,0
12,70,Memory,colour,switch,1000,50,0.05,different,4248,1,1
12,71,Memory,colour,repeat,50,1000,20,different,3242,0,1
12,72,Memory,colour,repeat,50,50,1,same,8576,1,0
12,73,Memory,colour,repeat,50,50,1,same,847,1,1
12,74,Memory,form,switch,50,50,1,same,2956,1,1
12,75,Memory,colour,switch,50,50,1,same,6551,1,1
12,76,Memory,form,switch,50,50,1,same,1174,0,1
12,77,Memory,form,repeat,50,50,1,same,3161,0,0
12,78,Memory,form,repeat,1000,50,0.05,different,1983,1,0
12,79,Memory,colour,switch,1000,1000,1,same,1232,0,1
12,80,Memory,form,switch,50,1000,20,different,4170,1,0
12,81,Memory,colour,switch,1000,50,0.05,different,3050,0,1
12,82,Memory,form,switch,1000,1000,1,same,466,1,0
12,83,Memory,form,repeat,50,1000,20,different,869,0,1
12,84,Memory,form,repeat,1000,50,0.05,different,1068,1,0
12,85,Memory,colour,switch,1000,1000,1,same,2425,1,1
12,86,Memory,form,switch,1000,1000,1,same,405,0,1
12,87,Memory,form,repeat,1000,1000,1,same,510,0,0
12,88,Memory,colour,switch,1000,1000,1,same,2218,1,0
12,89,Memory,colour,repeat,50,1000,20,different,1544,1,1
12,90,Memory,form,switch,50,50,1,same,3375,1,1
12,91,Memory,form,repeat,1000,50,0.05,different,784,0,1
12,92,Memory,colour,switch,1000,1000,1,same,779,0,0
12,93,Memory,colour,repeat,1000,1000,1,same,2895,1,0
12,94,Memory,form,switch,1000,1000,1,same,1427,1,1
12,95,Memory,form,repeat,50,1000,20,different,2550,0,1
12,96,Memory,form,repeat,1000,50,0.05,different,909,0,0
12,97,Memory,form,repeat,50,1000,20,different,4263,0,0
12,98,Memory,form,repeat,1000,50,0.05,different,1078,0,0
12,99,Memory,form,repeat,50,1000,20,different,8438,1,0
12,100,Memory,colour,switch,50,50,1,same,1949,0,1
12,101,Memory,colour,repeat,1000,50,0.05,different,536,0,0
12,102,Memory,form,switch,50,1000,20,different,4216,1,0
12,103,Memory,form,repeat,1000,50,0.05,different,2192,1,1
12,104,Memory,form,repeat,1000,1000,1,same,2002,0,1
12,105,Memory,form,repeat,50,1000,20,different,604,0,0
12,106,Memory,form,repeat,50,50,1,same,297,1,0
12,107,Memory,colour,switch,50,50,1,same,642,0,1
12,108,Memory,colour,repeat,1000,50,0.05,different,143,1,0
12,109,Memory,form,switch,1000,1000,1,same,2067,0,1
12,110,Memory,colour,switch,1000,1000,1,same,942,0,0
12,111,Memory,colour,repeat,50,1000,20,different,3111,0,0
12,112,Memory,form,switch,50,50,1,same,6065,1,0
12,113,Memory,form,repeat,50,50,1,same,2755,1,1
12,114,Memory,form,repeat,50,50,1,same,2423,0,1
12,115,Memory,form,repeat,50,50,1,same,3573,0,0
12,116,Memory,colour,switch,50,50,1,same,2157,1,0
12,117,Memory,colour,repeat,1000,50,0.05,different,13379,0,1
12,118,Memory,colour,repeat,50,1000,20,different,553,1,0
12,119,Memory,colour,repeat,1000,50,0.05,different,2204,1,1
12,120,Memory,colour,repeat,1000,1000,1,same,849,1,1
12,121,Memory,colour,repeat,50,1000,20,different,8197,0,1
12,122,Memory,colour,repeat,1000,50,0.05,different,1222,0,0
12,123,Memory,form,switch,1000,1000,1,same,1443,0,0
12,124,Memory,form,repeat,1000,1000,1,same,6103,1,0
12,125,Memory,form,repeat,1000,1000,1,same,4515,0,1
12,126,Memory,colour,switch,50,1000,20,different,3465,1,0
12,127,Memory,colour,repeat,1000,50,0.05,different,2708,1,1
12,128,Memory,colour,repeat,1000,1000,1,same,1519,0,1
12,129,Memory,form,null,1000,1000,1,same,4072,1,0
12,130,Memory,colour,switch,50,1000,20,different,4598,1,1
12,131,Memory,form,switch,1000,50,0.05,different,3252,1,1
12,132,Memory,colour,switch,50,1000,20,different,2484,1,1
12,133,Memory,colour,repeat,50,50,1,same,1723,1,1
12,134,Memory,form,switch,50,50,1,same,2125,1,1
12,135,Memory,colour,switch,1000,50,0.05,different,1975,1,1
12,136,Memory,colour,repeat,50,1000,20,different,1885,1,1
12,137,Memory,form,switch,50,50,1,same,5450,1,1
12,138,Memory,colour,switch,50,50,1,same,3984,1,1
12,139,Memory,colour,repeat,1000,50,0.05,different,4405,1,1
12,140,Memory,form,switch,1000,1000,1,same,2447,1,1
12,141,Memory,form,repeat,1000,1000,1,same,6612,1,1
12,142,Memory,form,repeat,50,1000,20,different,3462,1,1
12,143,Memory,form,repeat,50,50,1,same,2981,1,1
12,144,Memory,form,repeat,50,50,1,same,3735,1,1
12,145,Memory,form,repeat,1000,50,0.05,different,4138,1,1
12,146,Memory,colour,switch,50,1000,20,different,2294,1,1
12,147,Memory,form,switch,1000,50,0.05,different,2081,1,1
12,148,Memory,form,repeat,50,1000,20,different,999,0,1
12,149,Memory,colour,switch,50,50,1,same,2609,1,0
12,150,Memory,form,switch,50,50,1,same,5209,1,1
12,151,Memory,form,repeat,50,50,1,same,1203,1,1
12,152,Memory,colour,switch,50,50,1,same,2458,0,1
12,153,Memory,form,switch,50,50,1,same,1900,1,0
12,154,Memory,colour,switch,1000,50,0.05,different,3051,1,1
12,155,Memory,form,switch,50,1000,20,different,1622,1,1
12,156,Memory,form,repeat,1000,50,0.05,different,2340,1,1
12,157,Memory,form,repeat,50,1000,20,different,1067,1,1
12,158,Memory,form,repeat,50,50,1,same,1296,1,1
12,159,Memory,form,repeat,50,50,1,same,2284,1,1
12,160,Memory,form,repeat,50,50,1,same,1422,1,1
12,161,Memory,colour,switch,1000,50,0.05,different,3240,1,1
12,162,Memory,colour,repeat,1000,1000,1,same,4844,1,1
12,163,Memory,colour,repeat,50,1000,20,different,1865,1,1
12,164,Memory,colour,repeat,50,50,1,same,1193,1,1
12,165,Memory,colour,repeat,50,50,1,same,867,1,1
12,166,Memory,colour,repeat,1000,50,0.05,different,3732,1,1
12,167,Memory,colour,repeat,50,1000,20,different,1279,1,1
12,168,Memory,form,switch,50,50,1,same,2080,1,1
12,169,Memory,colour,switch,1000,50,0.05,different,1597,1,1
12,170,Memory,form,switch,1000,1000,1,same,4182,1,1
12,171,Memory,colour,switch,50,1000,20,different,2145,1,1
12,172,Memory,form,switch,1000,50,0.05,different,5476,1,1
12,173,Memory,form,repeat,1000,1000,1,same,1456,1,1
12,174,Memory,colour,switch,50,1000,20,different,1050,1,1
12,175,Memory,form,switch,1000,50,0.05,different,2868,1,1
12,176,Memory,form,repeat,50,1000,20,different,942,1,1
12,177,Memory,colour,switch,1000,50,0.05,different,1580,1,1
12,178,Memory,colour,repeat,50,1000,20,different,603,1,1
12,179,Memory,colour,repeat,50,50,1,same,813,1,1
12,180,Memory,form,switch,50,50,1,same,1806,1,1
12,181,Memory,form,repeat,1000,50,0.05,different,1778,1,1
12,182,Memory,form,repeat,1000,1000,1,same,795,1,1
12,183,Memory,colour,switch,1000,1000,1,same,759,1,1
12,184,Memory,colour,repeat,1000,1000,1,same,549,1,1
12,185,Memory,form,switch,1000,1000,1,same,1458,1,1
12,186,Memory,form,repeat,1000,1000,1,same,1047,1,1
12,187,Memory,colour,switch,1000,1000,1,same,851,1,1
12,188,Memory,colour,repeat,1000,1000,1,same,494,1,1
12,189,Memory,colour,repeat,1000,1000,1,same,606,1,1
12,190,Memory,colour,repeat,1000,1000,1,same,589,1,1
12,191,Memory,colour,repeat,1000,1000,1,same,825,1,1
12,192,Memory,colour,repeat,1000,1000,1,same,530,1,1
12,193,Memory,form,null,50,1000,20,different,1701,1,1
12,194,Memory,colour,switch,50,50,1,same,1331,1,1
12,195,Memory,colour,repeat,1000,50,0.05,different,1220,1,1
12,196,Memory,form,switch,50,1000,20,different,1923,1,1
12,197,Memory,colour,switch,50,50,1,same,1258,1,1
12,198,Memory,form,switch,1000,50,0.05,different,1462,1,1
12,199,Memory,form,repeat,50,1000,20,different,1144,0,1
12,200,Memory,colour,switch,50,50,1,same,4138,1,0
12,201,Memory,colour,repeat,1000,50,0.05,different,798,1,1
12,202,Memory,colour,repeat,1000,1000,1,same,854,1,1
12,203,Memory,colour,repeat,50,1000,20,different,654,1,1
12,204,Memory,colour,repeat,1000,50,0.05,different,907,1,1
12,205,Memory,colour,repeat,50,1000,20,different,679,1,1
12,206,Memory,colour,repeat,50,50,1,same,519,1,1
12,207,Memory,colour,repeat,1000,50,0.05,different,1641,1,1
12,208,Memory,colour,repeat,50,1000,20,different,687,1,1
12,209,Memory,form,switch,1000,50,0.05,different,2825,1,1
12,210,Memory,colour,switch,50,1000,20,different,1140,1,1
12,211,Memory,form,switch,1000,50,0.05,different,2918,1,1
12,212,Memory,colour,switch,1000,1000,1,same,2396,1,1
12,213,Memory,form,switch,1000,1000,1,same,1455,0,1
12,214,Memory,form,repeat,50,1000,20,different,3287,0,0
12,215,Memory,colour,switch,50,50,1,same,2412,1,0
12,216,Memory,form,switch,50,50,1,same,4190,1,1
12,217,Memory,form,repeat,50,50,1,same,1423,1,1
12,218,Memory,colour,switch,1000,50,0.05,different,953,1,1
12,219,Memory,form,switch,1000,1000,1,same,2171,1,1
12,220,Memory,form,repeat,1000,1000,1,same,738,1,1
12,221,Memory,colour,switch,50,1000,20,different,987,1,1
12,222,Memory,form,switch,50,50,1,same,1966,1,1
12,223,Memory,form,repeat,50,50,1,same,1258,1,1
12,224,Memory,form,repeat,50,50,1,same,942,1,1
12,225,Memory,colour,switch,50,50,1,same,967,1,1
12,226,Memory,form,switch,50,50,1,same,880,1,1
12,227,Memory,form,repeat,1000,50,0.05,different,1163,1,1
12,228,Memory,form,repeat,50,1000,20,different,1333,1,1
12,229,Memory,form,repeat,1000,50,0.05,different,835,1,1
12,230,Memory,form,repeat,1000,1000,1,same,1456,1,1
12,231,Memory,colour,switch,50,1000,20,different,713,1,1
12,232,Memory,colour,repeat,1000,50,0.05,different,927,1,1
12,233,Memory,colour,repeat,1000,1000,1,same,1037,1,1
12,234,Memory,colour,repeat,1000,1000,1,same,934,1,1
12,235,Memory,form,switch,50,1000,20,different,1724,1,1
12,236,Memory,colour,switch,1000,50,0.05,different,874,1,1
12,237,Memory,colour,repeat,1000,1000,1,same,664,1,1
12,238,Memory,form,switch,50,1000,20,different,1395,1,1
12,239,Memory,form,repeat,1000,50,0.05,different,534,0,1
12,240,Memory,form,repeat,50,1000,20,different,1229,1,0
12,241,Memory,colour,switch,50,50,1,same,1209,1,1
12,242,Memory,colour,repeat,1000,50,0.05,different,1753,1,1
12,243,Memory,form,switch,1000,1000,1,same,704,1,1
12,244,Memory,form,repeat,1000,1000,1,same,1887,1,1
12,245,Memory,form,repeat,50,1000,20,different,941,1,1
12,246,Memory,form,repeat,50,50,1,same,555,0,1
12,247,Memory,form,repeat,1000,50,0.05,different,1345,1,0
12,248,Memory,colour,switch,1000,1000,1,same,1130,1,1
12,249,Memory,colour,repeat,1000,1000,1,same,1107,1,1
12,250,Memory,form,switch,50,1000,20,different,1485,1,1
12,251,Memory,form,repeat,1000,50,0.05,different,2221,1,1
12,252,Memory,colour,switch,50,1000,20,different,1248,1,1
12,253,Memory,form,switch,1000,50,0.05,different,1622,1,1
12,254,Memory,colour,switch,50,1000,20,different,877,1,1
12,255,Memory,colour,repeat,1000,50,0.05,different,713,1,1
12,256,Memory,colour,repeat,50,1000,20,different,1005,1,1
12,257,Memory,form,null,1000,50,0.05,different,883,0,1
12,258,Memory,form,repeat,50,1000,20,different,1006,1,0
12,259,Memory,form,repeat,1000,50,0.05,different,884,0,1
12,260,Memory,colour,switch,1000,1000,1,same,855,1,0
12,261,Memory,form,switch,50,1000,20,different,1108,1,1
12,262,Memory,colour,switch,50,50,1,same,942,1,1
12,263,Memory,colour,repeat,1000,50,0.05,different,1314,1,1
12,264,Memory,form,switch,50,1000,20,different,1557,1,1
12,265,Memory,colour,switch,50,50,1,same,781,1,1
12,266,Memory,form,switch,1000,50,0.05,different,4076,1,1
12,267,Memory,colour,switch,50,1000,20,different,1098,1,1
12,268,Memory,form,switch,1000,50,0.05,different,700,1,1
12,269,Memory,colour,switch,50,1000,20,different,902,1,1
12,270,Memory,colour,repeat,1000,50,0.05,different,1893,1,1
12,271,Memory,form,switch,50,1000,20,different,2059,1,1
12,272,Memory,form,repeat,1000,50,0.05,different,932,1,1
12,273,Memory,colour,switch,50,1000,20,different,872,1,1
12,274,Memory,form,switch,1000,50,0.05,different,802,0,1
12,275,Memory,form,repeat,1000,1000,1,same,665,1,0
12,276,Memory,form,repeat,1000,1000,1,same,1556,1,1
12,277,Memory,colour,switch,1000,1000,1,same,935,1,1
12,278,Memory,form,switch,50,1000,20,different,1860,1,1
12,279,Memory,form,repeat,1000,50,0.05,different,1091,0,1
12,280,Memory,colour,switch,50,1000,20,different,959,1,0
12,281,Memory,colour,repeat,1000,50,0.05,different,503,1,1
12,282,Memory,form,switch,50,1000,20,different,1391,1,1
12,283,Memory,colour,switch,50,50,1,same,843,0,1
12,284,Memory,colour,repeat,50,50,1,same,1165,1,0
12,285,Memory,form,switch,1000,50,0.05,different,3079,1,1
12,286,Memory,colour,switch,50,1000,20,different,895,1,1
12,287,Memory,form,switch,1000,50,0.05,different,2205,1,1
12,288,Memory,colour,switch,1000,1000,1,same,522,1,1
12,289,Memory,colour,repeat,50,1000,20,different,790,1,1
12,290,Memory,colour,repeat,1000,50,0.05,different,800,1,1
12,291,Memory,colour,repeat,50,1000,20,different,556,1,1
12,292,Memory,form,switch,50,50,1,same,1653,1,1
12,293,Memory,colour,switch,1000,50,0.05,different,1160,1,1
12,294,Memory,form,switch,50,1000,20,different,2251,1,1
12,295,Memory,form,repeat,50,50,1,same,1354,1,1
12,296,Memory,colour,switch,1000,50,0.05,different,935,1,1
12,297,Memory,form,switch,1000,1000,1,same,3039,1,1
12,298,Memory,colour,switch,1000,1000,1,same,2171,1,1
12,299,Memory,colour,repeat,1000,1000,1,same,671,1,1
12,300,Memory,form,switch,1000,1000,1,same,1187,1,1
12,301,Memory,colour,switch,50,1000,20,different,691,1,1
12,302,Memory,form,switch,50,50,1,same,1434,1,1
12,303,Memory,colour,switch,1000,50,0.05,different,810,1,1
12,304,Memory,colour,repeat,1000,1000,1,same,1181,1,1
12,305,Memory,colour,repeat,1000,1000,1,same,439,1,1
12,306,Memory,form,switch,50,1000,20,different,1149,1,1
12,307,Memory,form,repeat,50,50,1,same,792,1,1
12,308,Memory,form,repeat,50,50,1,same,905,1,1
12,309,Memory,colour,switch,50,50,1,same,1077,1,1
12,310,Memory,form,switch,50,50,1,same,1303,1,1
12,311,Memory,form,repeat,50,50,1,same,1916,1,1
12,312,Memory,colour,switch,50,50,1,same,936,1,1
12,313,Memory,form,switch,1000,50,0.05,different,1614,1,1
12,314,Memory,form,repeat,50,1000,20,different,833,1,1
12,315,Memory,colour,switch,50,50,1,same,812,1,1
12,316,Memory,form,switch,1000,50,0.05,different,1958,1,1
12,317,Memory,colour,switch,1000,1000,1,same,937,1,1
12,318,Memory,form,switch,50,1000,20,different,1450,1,1
12,319,Memory,colour,switch,50,50,1,same,1249,1,1
12,320,Memory,colour,repeat,1000,50,0.05,different,1314,1,1
12,321,Memory,colour,null,1000,1000,1,same,764,1,1
12,322,Memory,form,switch,50,1000,20,different,1624,1,1
12,323,Memory,colour,switch,50,50,1,same,1202,1,1
12,324,Memory,form,switch,1000,50,0.05,different,1985,1,1
12,325,Memory,colour,switch,1000,1000,1,same,857,1,1
12,326,Memory,colour,repeat,50,1000,20,different,663,1,1
12,327,Memory,colour,repeat,50,50,1,same,752,1,1
12,328,Memory,colour,repeat,1000,50,0.05,different,896,1,1
12,329,Memory,form,switch,50,1000,20,different,959,0,1
12,330,Memory,form,repeat,50,50,1,same,1325,0,0
12,331,Memory,colour,switch,1000,50,0.05,different,1413,1,0
12,332,Memory,form,switch,50,1000,20,different,1257,1,1
12,333,Memory,colour,switch,50,50,1,same,1288,1,1
12,334,Memory,form,switch,1000,50,0.05,different,3663,1,1
12,335,Memory,form,repeat,50,1000,20,different,1190,1,1
12,336,Memory,colour,switch,50,50,1,same,1000,1,1
12,337,Memory,colour,repeat,1000,50,0.05,different,2627,1,1
12,338,Memory,form,switch,1000,1000,1,same,935,0,1
12,339,Memory,colour,switch,50,1000,20,different,978,1,0
12,340,Memory,colour,repeat,1000,50,0.05,different,539,1,1
12,341,Memory,form,switch,50,1000,20,different,1458,1,1
12,342,Memory,colour,switch,1000,50,0.05,different,1001,1,1
12,343,Memory,colour,repeat,1000,1000,1,same,1131,1,1
12,344,Memory,colour,repeat,50,1000,20,different,781,1,1
12,345,Memory,form,switch,50,50,1,same,2029,1,1
12,346,Memory,form,repeat,1000,50,0.05,different,1726,1,1
12,347,Memory,form,repeat,50,1000,20,different,778,1,1
12,348,Memory,form,repeat,1000,50,0.05,different,999,1,1
12,349,Memory,colour,switch,50,1000,20,different,774,1,1
12,350,Memory,form,switch,50,50,1,same,1588,1,1
12,351,Memory,colour,switch,50,50,1,same,2056,1,1
12,352,Memory,form,switch,1000,50,0.05,different,3208,1,1
12,353,Memory,colour,switch,1000,1000,1,same,867,1,1
12,354,Memory,form,switch,50,1000,20,different,1542,1,1
12,355,Memory,colour,switch,50,50,1,same,917,1,1
12,356,Memory,colour,repeat,50,50,1,same,774,1,1
12,357,Memory,colour,repeat,1000,50,0.05,different,1303,1,1
12,358,Memory,form,switch,50,1000,20,different,1403,1,1
12,359,Memory,colour,switch,50,50,1,same,1202,1,1
12,360,Memory,colour,repeat,50,50,1,same,1431,1,1
12,361,Memory,form,switch,1000,50,0.05,different,1468,1,1
12,362,Memory,form,repeat,1000,1000,1,same,2074,1,1
12,363,Memory,form,repeat,1000,1000,1,same,1476,1,1
12,364,Memory,colour,switch,50,1000,20,different,825,1,1
12,365,Memory,form,switch,1000,50,0.05,different,1565,1,1
12,366,Memory,colour,switch,50,1000,20,different,1128,0,1
12,367,Memory,form,switch,50,50,1,same,1523,0,0
12,368,Memory,form,repeat,1000,50,0.05,different,1366,1,0
12,369,Memory,colour,switch,1000,1000,1,same,596,1,1
12,370,Memory,colour,repeat,1000,1000,1,same,1243,1,1
12,371,Memory,form,switch,1000,1000,1,same,906,0,1
12,372,Memory,form,repeat,50,1000,20,different,2843,1,0
12,373,Memory,form,repeat,1000,50,0.05,different,1666,1,1
12,374,Memory,form,repeat,50,1000,20,different,1055,1,1
12,375,Memory,colour,switch,1000,50,0.05,different,719,1,1
12,376,Memory,colour,repeat,1000,1000,1,same,939,1,1
12,377,Memory,colour,repeat,1000,1000,1,same,470,1,1
12,378,Memory,form,switch,50,1000,20,different,1412,1,1
12,379,Memory,colour,switch,1000,50,0.05,different,2480,1,1
12,380,Memory,form,switch,1000,1000,1,same,1497,1,1
12,381,Memory,form,repeat,50,1000,20,different,1637,1,1
12,382,Memory,form,repeat,50,50,1,same,896,1,1
12,383,Memory,form,repeat,1000,50,0.05,different,897,1,1
12,384,Memory,colour,switch,50,1000,20,different,896,1,1
13,1,Memory,colour,null,50,1000,20,different,3464,1,1
13,2,Memory,colour,repeat,50,50,1,same,1397,1,1
13,3,Memory,form,switch,50,50,1,same,2948,1,1
13,4,Memory,colour,switch,50,50,1,same,850,1,1
13,5,Memory,form,switch,1000,50,0.05,different,2838,1,1
13,6,Memory,colour,switch,50,1000,20,different,2853,1,1
13,7,Memory,form,switch,1000,50,0.05,different,2846,1,1
13,8,Memory,colour,switch,50,1000,20,different,2394,1,1
13,9,Memory,colour,repeat,50,50,1,same,683,1,1
13,10,Memory,form,switch,1000,50,0.05,different,3662,1,1
13,11,Memory,colour,switch,1000,1000,1,same,2838,1,1
13,12,Memory,form,switch,50,1000,20,different,1844,1,1
13,13,Memory,form,repeat,1000,50,0.05,different,2349,1,1
13,14,Memory,form,repeat,1000,1000,1,same,1058,0,1
13,15,Memory,form,repeat,50,1000,20,different,3362,1,0
13,16,Memory,colour,switch,50,50,1,same,1867,1,1
13,17,Memory,colour,repeat,50,50,1,same,1315,1,1
13,18,Memory,colour,repeat,1000,50,0.05,different,819,1,1
13,19,Memory,colour,repeat,1000,1000,1,same,1184,0,1
13,20,Memory,form,switch,1000,1000,1,same,3161,0,0
13,21,Memory,colour,switch,1000,1000,1,same,3920,1,0
13,22,Memory,form,switch,50,1000,20,different,2050,1,1
13,23,Memory,colour,switch,1000,50,0.05,different,3094,1,1
13,24,Memory,form,switch,50,1000,20,different,2929,0,1
13,25,Memory,form,repeat,1000,50,0.05,different,3236,1,0
13,26,Memory,form,repeat,50,1000,20,different,4753,0,1
13,27,Memory,form,repeat,1000,50,0.05,different,4655,0,0
13,28,Memory,form,repeat,50,1000,20,different,4692,1,0
13,29,Memory,colour,switch,1000,50,0.05,different,2006,1,1
13,30,Memory,form,switch,1000,1000,1,same,4029,1,1
13,31,Memory,form,repeat,1000,1000,1,same,2301,1,1
13,32,Memory,form,repeat,1000,1000,1,same,1516,1,1
13,33,Memory,colour,switch,50,1000,20,different,3514,1,1
13,34,Memory,colour,repeat,1000,50,0.05,different,1381,1,1
13,35,Memory,form,switch,50,1000,20,different,1628,1,1
13,36,Memory,colour,switch,1000,50,0.05,different,3695,1,1
13,37,Memory,colour,repeat,50,1000,20,different,973,1,1
13,38,Memory,colour,repeat,50,50,1,same,489,1,1
13,39,Memory,form,switch,50,50,1,same,650,0,1
13,40,Memory,colour,switch,1000,50,0.05,different,4633,1,0
13,41,Memory,form,switch,50,1000,20,different,2876,1,1
13,42,Memory,colour,switch,1000,50,0.05,different,2718,1,1
13,43,Memory,form,switch,50,1000,20,different,6462,1,1
13,44,Memory,form,repeat,50,50,1,same,3856,1,1
13,45,Memory,form,repeat,1000,50,0.05,different,1258,1,1
13,46,Memory,colour,switch,1000,1000,1,same,2914,1,1
13,47,Memory,form,switch,50,1000,20,different,2636,1,1
13,48,Memory,form,repeat,50,50,1,same,802,1,1
13,49,Memory,colour,switch,1000,50,0.05,different,1413,1,1
13,50,Memory,colour,repeat,50,1000,20,different,967,1,1
13,51,Memory,colour,repeat,50,50,1,same,1023,1,1
13,52,Memory,colour,repeat,50,50,1,same,626,1,1
13,53,Memory,colour,repeat,1000,50,0.05,different,1870,1,1
13,54,Memory,colour,repeat,1000,1000,1,same,447,1,1
13,55,Memory,colour,repeat,1000,1000,1,same,875,1,1
13,56,Memory,colour,repeat,50,1000,20,different,609,1,1
13,57,Memory,form,switch,50,50,1,same,1467,1,1
13,58,Memory,form,repeat,1000,50,0.05,different,724,0,1
13,59,Memory,form,repeat,50,1000,20,different,777,0,0
13,60,Memory,form,repeat,1000,50,0.05,different,3372,1,0
13,61,Memory,colour,switch,50,1000,20,different,1059,0,1
13,62,Memory,form,switch,50,50,1,same,1195,1,0
13,63,Memory,form,repeat,1000,50,0.05,different,462,1,1
13,64,Memory,colour,switch,1000,1000,1,same,2886,1,1
13,65,Memory,colour,null,50,1000,20,different,3165,1,1
13,66,Memory,colour,repeat,1000,50,0.05,different,2358,1,1
13,67,Memory,colour,repeat,1000,1000,1,same,1258,1,1
13,68,Memory,colour,repeat,1000,1000,1,same,954,1,1
13,69,Memory,form,switch,50,1000,20,different,1470,1,1
13,70,Memory,colour,switch,50,50,1,same,2685,1,1
13,71,Memory,form,switch,1000,50,0.05,different,3428,1,1
13,72,Memory,form,repeat,50,1000,20,different,1939,1,1
13,73,Memory,form,repeat,50,50,1,same,530,1,1
13,74,Memory,colour,switch,1000,50,0.05,different,1515,1,1
13,75,Memory,colour,repeat,50,1000,20,different,637,1,1
13,76,Memory,form,switch,1000,50,0.05,different,1596,1,1
13,77,Memory,colour,switch,50,1000,20,different,2154,1,1
13,78,Memory,colour,repeat,1000,50,0.05,different,869,1,1
13,79,Memory,form,switch,50,1000,20,different,3248,0,1
13,80,Memory,form,repeat,50,50,1,same,3756,1,0
13,81,Memory,form,repeat,50,50,1,same,924,1,1
13,82,Memory,form,repeat,1000,50,0.05,different,549,1,1
13,83,Memory,form,repeat,50,1000,20,different,1031,1,1
13,84,Memory,colour,switch,1000,50,0.05,different,1681,1,1
13,85,Memory,form,switch,1000,1000,1,same,3010,1,1
13,86,Memory,form,repeat,50,1000,20,different,908,1,1
13,87,Memory,colour,switch,50,50,1,same,1458,1,1
13,88,Memory,colour,repeat,1000,50,0.05,different,1201,1,1
13,89,Memory,form,switch,1000,1000,1,same,2664,1,1
13,90,Memory,form,repeat,1000,1000,1,same,1407,1,1
13,91,Memory,form,repeat,50,1000,20,different,433,1,1
13,92,Memory,colour,switch,1000,50,0.05,different,2054,1,1
13,93,Memory,colour,repeat,1000,1000,1,same,1551,1,1
13,94,Memory,colour,repeat,50,1000,20,different,793,1,1
13,95,Memory,form,switch,50,50,1,same,3006,1,1
13,96,Memory,colour,switch,1000,50,0.05,different,468,1,1
13,97,Memory,form,switch,1000,1000,1,same,2216,1,1
13,98,Memory,colour,switch,1000,1000,1,same,1651,1,1
13,99,Memory,form,switch,50,1000,20,different,1506,1,1
13,100,Memory,colour,switch,50,50,1,same,1124,0,1
13,101,Memory,form,switch,50,50,1,same,2569,1,0
13,102,Memory,form,repeat,1000,50,0.05,different,1825,1,1
13,103,Memory,colour,switch,1000,1000,1,same,8237,1,1
13,104,Memory,colour,repeat,50,1000,20,different,504,1,1
13,105,Memory,form,switch,1000,50,0.05,different,3225,1,1
13,106,Memory,colour,switch,50,1000,20,different,4389,1,1
13,107,Memory,form,switch,50,50,1,same,1931,1,1
13,108,Memory,colour,switch,50,50,1,same,3450,1,1
13,109,Memory,form,switch,50,50,1,same,9510,1,1
13,110,Memory,form,repeat,1000,50,0.05,different,1266,1,1
13,111,Memory,form,repeat,1000,1000,1,same,630,1,1
13,112,Memory,colour,switch,50,1000,20,different,1229,1,1
13,113,Memory,colour,repeat,50,50,1,same,748,1,1
13,114,Memory,form,switch,1000,50,0.05,different,1261,1,1
13,115,Memory,colour,switch,1000,1000,1,same,1251,1,1
13,116,Memory,form,switch,1000,1000,1,same,1967,1,1
13,117,Memory,form,repeat,50,1000,20,different,647,1,1
13,118,Memory,colour,switch,50,50,1,same,1390,1,1
13,119,Memory,colour,repeat,1000,50,0.05,different,761,1,1
13,120,Memory,colour,repeat,50,1000,20,different,471,1,1
13,121,Memory,form,switch,1000,50,0.05,different,1915,0,1
13,122,Memory,colour,switch,50,1000,20,different,734,1,0
13,123,Memory,colour,repeat,1000,50,0.05,different,1147,1,1
13,124,Memory,colour,repeat,1000,1000,1,same,605,1,1
13,125,Memory,form,switch,50,1000,20,different,2986,1,1
13,126,Memory,form,repeat,1000,50,0.05,different,1140,1,1
13,127,Memory,form,repeat,50,1000,20,different,407,1,1
13,128,Memory,colour,switch,50,50,1,same,1975,1,1
13,129,Memory,form,null,1000,50,0.05,different,893,0,1
13,130,Memory,colour,switch,1000,1000,1,same,2964,1,0
13,131,Memory,colour,repeat,1000,1000,1,same,555,1,1
13,132,Memory,form,switch,1000,1000,1,same,2179,1,1
13,133,Memory,colour,switch,50,1000,20,different,1354,1,1
13,134,Memory,form,switch,1000,50,0.05,different,2552,1,1
13,135,Memory,colour,switch,1000,1000,1,same,1705,1,1
13,136,Memory,form,switch,1000,1000,1,same,1755,1,1
13,137,Memory,colour,switch,50,1000,20,different,1156,0,1
13,138,Memory,form,switch,50,50,1,same,3308,1,0
13,139,Memory,colour,switch,1000,50,0.05,different,1096,1,1
13,140,Memory,form,switch,1000,1000,1,same,1274,1,1
13,141,Memory,colour,switch,1000,1000,1,same,3039,1,1
13,142,Memory,colour,repeat,1000,1000,1,same,919,1,1
13,143,Memory,colour,repeat,1000,1000,1,same,768,1,1
13,144,Memory,colour,repeat,50,1000,20,different,542,1,1
13,145,Memory,colour,repeat,1000,50,0.05,different,940,1,1
13,146,Memory,form,switch,50,1000,20,different,2153,0,1
13,147,Memory,colour,switch,50,50,1,same,2275,1,0
13,148,Memory,form,switch,50,50,1,same,1739,1,1
13,149,Memory,form,repeat,1000,50,0.05,different,671,1,1
13,150,Memory,form,repeat,1000,1000,1,same,745,1,1
13,151,Memory,form,repeat,50,1000,20,different,976,1,1
13,152,Memory,colour,switch,50,50,1,same,1164,1,1
13,153,Memory,colour,repeat,50,50,1,same,1610,1,1
13,154,Memory,colour,repeat,50,50,1,same,3375,1,1
13,155,Memory,form,switch,1000,50,0.05,different,1651,1,1
13,156,Memory,colour,switch,50,1000,20,different,1822,1,1
13,157,Memory,form,switch,50,50,1,same,1285,1,1
13,158,Memory,colour,switch,50,50,1,same,1000,1,1
13,159,Memory,form,switch,50,50,1,same,4890,0,1
13,160,Memory,form,repeat,50,50,1,same,1911,1,0
13,161,Memory,form,repeat,50,50,1,same,1788,1,1
13,162,Memory,form,repeat,50,50,1,same,992,1,1
13,163,Memory,colour,switch,50,50,1,same,1243,1,1
13,164,Memory,colour,repeat,50,50,1,same,1368,1,1
13,165,Memory,form,switch,1000,50,0.05,different,2770,1,1
13,166,Memory,colour,switch,1000,1000,1,same,1504,1,1
13,167,Memory,colour,repeat,50,1000,20,different,676,1,1
13,168,Memory,form,switch,1000,50,0.05,different,2395,1,1
13,169,Memory,form,repeat,1000,1000,1,same,664,1,1
13,170,Memory,colour,switch,1000,1000,1,same,804,1,1
13,171,Memory,form,switch,1000,1000,1,same,1833,1,1
13,172,Memory,colour,switch,1000,1000,1,same,1560,1,1
13,173,Memory,form,switch,50,1000,20,different,3354,1,1
13,174,Memory,colour,switch,1000,50,0.05,different,1233,1,1
13,175,Memory,colour,repeat,50,1000,20,different,678,1,1
13,176,Memory,colour,repeat,1000,50,0.05,different,735,1,1
13,177,Memory,colour,repeat,1000,1000,1,same,642,1,1
13,178,Memory,colour,repeat,50,1000,20,different,505,1,1
13,179,Memory,form,switch,1000,50,0.05,different,1256,1,1
13,180,Memory,colour,switch,1000,1000,1,same,2763,1,1
13,181,Memory,form,switch,50,1000,20,different,1163,0,1
13,182,Memory,form,repeat,50,50,1,same,3364,1,0
13,183,Memory,form,repeat,50,50,1,same,647,1,1
13,184,Memory,colour,switch,50,50,1,same,2344,1,1
13,185,Memory,colour,repeat,50,50,1,same,687,1,1
13,186,Memory,colour,repeat,1000,50,0.05,different,598,1,1
13,187,Memory,form,switch,50,1000,20,different,2457,1,1
13,188,Memory,form,repeat,1000,50,0.05,different,3017,1,1
13,189,Memory,form,repeat,50,1000,20,different,418,1,1
13,190,Memory,form,repeat,50,50,1,same,633,1,1
13,191,Memory,form,repeat,1000,50,0.05,different,717,1,1
13,192,Memory,form,repeat,50,1000,20,different,473,1,1
13,193,Memory,colour,null,50,50,1,same,2404,1,1
13,194,Memory,colour,repeat,1000,50,0.05,different,723,1,1
13,195,Memory,form,switch,1000,1000,1,same,2232,1,1
13,196,Memory,colour,switch,1000,1000,1,same,1288,1,1
13,197,Memory,form,switch,1000,1000,1,same,1175,1,1
13,198,Memory,colour,switch,50,1000,20,different,1643,1,1
13,199,Memory,form,switch,50,50,1,same,3254,1,1
13,200,Memory,form,repeat,1000,50,0.05,different,1016,1,1
13,201,Memory,colour,switch,50,1000,20,different,1384,1,1
13,202,Memory,form,switch,1000,50,0.05,different,2107,1,1
13,203,Memory,colour,switch,50,1000,20,different,1290,1,1
13,204,Memory,colour,repeat,1000,50,0.05,different,1026,1,1
13,205,Memory,colour,repeat,50,1000,20,different,529,1,1
13,206,Memory,form,switch,50,50,1,same,1455,1,1
13,207,Memory,colour,switch,1000,50,0.05,different,932,1,1
13,208,Memory,colour,repeat,50,1000,20,different,1379,1,1
13,209,Memory,form,switch,50,50,1,same,1566,1,1
13,210,Memory,form,repeat,1000,50,0.05,different,1456,1,1
13,211,Memory,colour,switch,1000,1000,1,same,1428,1,1
13,212,Memory,form,switch,50,1000,20,different,3549,0,1
13,213,Memory,form,repeat,50,50,1,same,1448,0,0
13,214,Memory,form,repeat,50,50,1,same,1402,1,0
13,215,Memory,form,repeat,50,50,1,same,355,1,1
13,216,Memory,form,repeat,1000,50,0.05,different,539,1,1
13,217,Memory,colour,switch,1000,1000,1,same,1201,1,1
13,218,Memory,form,switch,1000,1000,1,same,984,1,1
13,219,Memory,colour,switch,1000,1000,1,same,662,1,1
13,220,Memory,form,switch,1000,1000,1,same,3134,0,1
13,221,Memory,form,repeat,50,1000,20,different,1254,1,0
13,222,Memory,colour,switch,50,50,1,same,2159,1,1
13,223,Memory,form,switch,50,50,1,same,3404,1,1
13,224,Memory,colour,switch,1000,50,0.05,different,462,0,1
13,225,Memory,form,switch,50,1000,20,different,1589,1,0
13,226,Memory,colour,switch,1000,50,0.05,different,1281,1,1
13,227,Memory,form,switch,1000,1000,1,same,1570,1,1
13,228,Memory,colour,switch,50,1000,20,different,855,1,1
13,229,Memory,colour,repeat,50,50,1,same,1232,1,1
13,230,Memory,colour,repeat,50,50,1,same,507,1,1
13,231,Memory,colour,repeat,50,50,1,same,494,1,1
13,232,Memory,form,switch,50,50,1,same,3811,1,1
13,233,Memory,colour,switch,50,50,1,same,927,1,1
13,234,Memory,form,switch,50,50,1,same,1318,1,1
13,235,Memory,form,repeat,50,50,1,same,2604,1,1
13,236,Memory,form,repeat,1000,50,0.05,different,701,1,1
13,237,Memory,form,repeat,50,1000,20,different,530,1,1
13,238,Memory,colour,switch,1000,50,0.05,different,951,1,1
13,239,Memory,colour,repeat,50,1000,20,different,544,1,1
13,240,Memory,colour,repeat,1000,50,0.05,different,561,1,1
13,241,Memory,form,switch,50,1000,20,different,2023,1,1
13,242,Memory,colour,switch,1000,50,0.05,different,1172,1,1
13,243,Memory,colour,repeat,1000,1000,1,same,699,1,1
13,244,Memory,form,switch,50,1000,20,different,4091,1,1
13,245,Memory,form,repeat,1000,50,0.05,different,1495,1,1
13,246,Memory,form,repeat,1000,1000,1,same,392,1,1
13,247,Memory,form,repeat,1000,1000,1,same,546,1,1
13,248,Memory,form,repeat,1000,1000,1,same,1773,1,1
13,249,Memory,colour,switch,1000,1000,1,same,1132,0,1
13,250,Memory,colour,repeat,50,1000,20,different,349,1,0
13,251,Memory,colour,repeat,50,50,1,same,588,1,1
13,252,Memory,form,switch,1000,50,0.05,different,1725,1,1
13,253,Memory,form,repeat,50,1000,20,different,1069,1,1
13,254,Memory,colour,switch,50,50,1,same,1488,1,1
13,255,Memory,colour,repeat,1000,50,0.05,different,983,0,1
13,256,Memory,colour,repeat,1000,1000,1,same,4291,1,0
13,257,Memory,colour,null,50,1000,20,different,3937,1,1
13,258,Memory,form,switch,1000,50,0.05,different,1447,1,1
13,259,Memory,colour,switch,1000,1000,1,same,2864,1,1
13,260,Memory,form,switch,50,1000,20,different,1424,1,1
13,261,Memory,colour,switch,1000,50,0.05,different,1624,1,1
13,262,Memory,colour,repeat,1000,1000,1,same,894,1,1
13,263,Memory,form,switch,50,1000,20,different,1076,1,1
13,264,Memory,colour,switch,1000,50,0.05,different,2573,1,1
13,265,Memory,form,switch,1000,1000,1,same,1019,1,1
13,266,Memory,colour,switch,50,1000,20,different,1778,1,1
13,267,Memory,colour,repeat,1000,50,0.05,different,3792,1,1
13,268,Memory,form,switch,1000,1000,1,same,5229,1,1
13,269,Memory,colour,switch,1000,1000,1,same,1226,1,1
13,270,Memory,colour,repeat,50,1000,20,different,892,1,1
13,271,Memory,form,switch,50,50,1,same,1119,1,1
13,272,Memory,form,repeat,50,50,1,same,1015,1,1
13,273,Memory,colour,switch,50,50,1,same,1268,0,1
13,274,Memory,colour,repeat,1000,50,0.05,different,2105,1,0
13,275,Memory,form,switch,50,1000,20,different,2120,1,1
13,276,Memory,colour,switch,1000,50,0.05,different,2463,1,1
13,277,Memory,form,switch,50,1000,20,different,1292,1,1
13,278,Memory,form,repeat,50,50,1,same,516,1,1
13,279,Memory,form,repeat,1000,50,0.05,different,1551,1,1
13,280,Memory,colour,switch,1000,1000,1,same,1286,1,1
13,281,Memory,form,switch,1000,1000,1,same,2546,1,1
13,282,Memory,form,repeat,1000,1000,1,same,981,1,1
13,283,Memory,form,repeat,50,1000,20,different,791,1,1
13,284,Memory,colour,switch,1000,50,0.05,different,948,1,1
13,285,Memory,colour,repeat,1000,1000,1,same,543,1,1
13,286,Memory,colour,repeat,1000,1000,1,same,1282,1,1
13,287,Memory,colour,repeat,50,1000,20,different,666,1,1
13,288,Memory,colour,repeat,50,50,1,same,1148,1,1
13,289,Memory,form,switch,1000,50,0.05,different,2022,1,1
13,290,Memory,form,repeat,50,1000,20,different,533,1,1
13,291,Memory,colour,switch,50,50,1,same,1198,1,1
13,292,Memory,colour,repeat,50,50,1,same,589,1,1
13,293,Memory,form,switch,50,50,1,same,3639,1,1
13,294,Memory,colour,switch,50,50,1,same,2053,1,1
13,295,Memory,form,switch,1000,50,0.05,different,1622,1,1
13,296,Memory,form,repeat,1000,1000,1,same,953,1,1
13,297,Memory,colour,switch,50,1000,20,different,826,1,1
13,298,Memory,form,switch,50,50,1,same,1531,1,1
13,299,Memory,form,repeat,1000,50,0.05,different,994,1,1
13,300,Memory,form,repeat,50,1000,20,different,1840,1,1
13,301,Memory,colour,switch,50,50,1,same,1032,1,1
13,302,Memory,colour,repeat,50,50,1,same,710,1,1
13,303,Memory,colour,repeat,1000,50,0.05,different,2791,1,1
13,304,Memory,form,switch,1000,1000,1,same,1161,1,1
13,305,Memory,colour,switch,50,1000,20,different,1444,1,1
13,306,Memory,colour,repeat,50,50,1,same,679,1,1
13,307,Memory,form,switch,50,50,1,same,1259,1,1
13,308,Memory,form,repeat,1000,50,0.05,different,3805,1,1
13,309,Memory,form,repeat,1000,1000,1,same,817,1,1
13,310,Memory,colour,switch,1000,1000,1,same,1913,1,1
13,311,Memory,colour,repeat,50,1000,20,different,495,1,1
13,312,Memory,colour,repeat,1000,50,0.05,different,1829,1,1
13,313,Memory,form,switch,50,1000,20,different,1016,1,1
13,314,Memory,form,repeat,1000,50,0.05,different,554,1,1
13,315,Memory,form,repeat,50,1000,20,different,1778,1,1
13,316,Memory,form,repeat,50,50,1,same,539,1,1
13,317,Memory,colour,switch,50,50,1,same,872,1,1
13,318,Memory,form,switch,50,50,1,same,1424,1,1
13,319,Memory,form,repeat,1000,50,0.05,different,1722,1,1
13,320,Memory,colour,switch,1000,1000,1,same,1089,1,1
13,321,Memory,colour,null,1000,1000,1,same,473,1,1
13,322,Memory,colour,repeat,50,1000,20,different,377,1,1
13,323,Memory,colour,repeat,1000,50,0.05,different,532,1,1
13,324,Memory,colour,repeat,50,1000,20,different,577,1,1
13,325,Memory,colour,repeat,50,50,1,same,547,1,1
13,326,Memory,colour,repeat,50,50,1,same,538,1,1
13,327,Memory,form,switch,50,50,1,same,1233,1,1
13,328,Memory,form,repeat,50,50,1,same,879,1,1
13,329,Memory,form,repeat,1000,50,0.05,different,583,1,1
13,330,Memory,colour,switch,1000,1000,1,same,914,1,1
13,331,Memory,form,switch,1000,1000,1,same,1255,1,1
13,332,Memory,form,repeat,50,1000,20,different,556,0,1
13,333,Memory,colour,switch,1000,50,0.05,different,3529,1,0
13,334,Memory,form,switch,1000,1000,1,same,1785,1,1
13,335,Memory,form,repeat,50,1000,20,different,482,1,1
13,336,Memory,colour,switch,1000,50,0.05,different,2591,1,1
13,337,Memory,form,switch,50,1000,20,different,1285,1,1
13,338,Memory,form,repeat,50,50,1,same,1292,1,1
13,339,Memory,form,repeat,50,50,1,same,642,1,1
13,340,Memory,form,repeat,50,50,1,same,981,1,1
13,341,Memory,colour,switch,1000,50,0.05,different,844,1,1
13,342,Memory,colour,repeat,50,1000,20,different,910,1,1
13,343,Memory,form,switch,1000,50,0.05,different,1744,1,1
13,344,Memory,form,repeat,1000,1000,1,same,656,1,1
13,345,Memory,colour,switch,1000,1000,1,same,2063,1,1
13,346,Memory,form,switch,1000,1000,1,same,1077,1,1
13,347,Memory,colour,switch,50,1000,20,different,602,1,1
13,348,Memory,colour,repeat,1000,50,0.05,different,1471,1,1
13,349,Memory,colour,repeat,1000,1000,1,same,849,1,1
13,350,Memory,colour,repeat,50,1000,20,different,491,0,1
13,351,Memory,form,switch,50,50,1,same,1184,1,0
13,352,Memory,colour,switch,50,50,1,same,581,0,1
13,353,Memory,form,switch,1000,50,0.05,different,2070,1,0
13,354,Memory,colour,switch,50,1000,20,different,1101,1,1
13,355,Memory,form,switch,50,50,1,same,765,1,1
13,356,Memory,form,repeat,1000,50,0.05,different,1516,1,1
13,357,Memory,form,repeat,1000,1000,1,same,597,1,1
13,358,Memory,colour,switch,1000,1000,1,same,1275,1,1
13,359,Memory,colour,repeat,1000,1000,1,same,379,1,1
13,360,Memory,form,switch,1000,1000,1,same,3440,1,1
13,361,Memory,colour,switch,50,1000,20,different,1382,1,1
13,362,Memory,colour,repeat,50,50,1,same,616,1,1
13,363,Memory,form,switch,1000,50,0.05,different,4387,0,1
13,364,Memory,colour,switch,50,1000,20,different,1022,1,0
13,365,Memory,colour,repeat,50,50,1,same,630,1,1
13,366,Memory,colour,repeat,50,50,1,same,558,1,1
13,367,Memory,colour,repeat,50,50,1,same,570,1,1
13,368,Memory,form,switch,50,50,1,same,3201,1,1
13,369,Memory,form,repeat,50,50,1,same,540,1,1
13,370,Memory,colour,switch,1000,50,0.05,different,1076,1,1
13,371,Memory,form,switch,50,1000,20,different,1808,1,1
13,372,Memory,colour,switch,1000,50,0.05,different,1619,1,1
13,373,Memory,form,switch,50,1000,20,different,3848,1,1
13,374,Memory,form,repeat,1000,50,0.05,different,3009,1,1
13,375,Memory,form,repeat,1000,1000,1,same,3402,0,1
13,376,Memory,form,repeat,50,1000,20,different,1107,1,0
13,377,Memory,form,repeat,50,50,1,same,566,1,1
13,378,Memory,form,repeat,50,50,1,same,427,1,1
13,379,Memory,colour,switch,1000,50,0.05,different,1143,1,1
13,380,Memory,colour,repeat,1000,1000,1,same,1111,1,1
13,381,Memory,form,switch,1000,1000,1,same,1444,1,1
13,382,Memory,colour,switch,50,1000,20,different,1272,1,1
13,383,Memory,colour,repeat,1000,50,0.05,different,390,1,1
13,384,Memory,form,switch,1000,1000,1,same,1219,1,1
14,1,Memory,colour,null,50,1000,20,different,1550,1,1
14,2,Memory,form,switch,1000,50,0.05,different,1877,1,1
14,3,Memory,form,repeat,1000,1000,1,same,3658,1,1
14,4,Memory,colour,switch,50,1000,20,different,4809,1,1
14,5,Memory,form,switch,50,50,1,same,4235,1,1
14,6,Memory,form,repeat,50,50,1,same,6437,1,1
14,7,Memory,colour,switch,1000,50,0.05,different,1786,1,1
14,8,Memory,colour,repeat,50,1000,20,different,1429,1,1
14,9,Memory,colour,repeat,1000,50,0.05,different,3139,0,1
14,10,Memory,colour,repeat,50,1000,20,different,6294,0,0
14,11,Memory,colour,repeat,1000,50,0.05,different,2221,1,0
14,12,Memory,colour,repeat,1000,1000,1,same,2150,1,1
14,13,Memory,colour,repeat,50,1000,20,different,813,1,1
14,14,Memory,form,switch,50,50,1,same,2006,1,1
14,15,Memory,form,repeat,50,50,1,same,921,1,1
14,16,Memory,colour,switch,50,50,1,same,3721,1,1
14,17,Memory,form,switch,1000,50,0.05,different,1711,1,1
14,18,Memory,form,repeat,50,1000,20,different,979,1,1
14,19,Memory,colour,switch,1000,50,0.05,different,3293,1,1
14,20,Memory,form,switch,50,1000,20,different,3950,1,1
14,21,Memory,colour,switch,1000,50,0.05,different,6066,1,1
14,22,Memory,form,switch,50,1000,20,different,1622,1,1
14,23,Memory,colour,switch,50,50,1,same,1967,1,1
14,24,Memory,colour,repeat,50,50,1,same,3334,1,1
14,25,Memory,colour,repeat,50,50,1,same,888,1,1
14,26,Memory,form,switch,50,50,1,same,1385,1,1
14,27,Memory,form,repeat,50,50,1,same,4454,1,1
14,28,Memory,form,repeat,1000,50,0.05,different,1259,1,1
14,29,Memory,colour,switch,1000,1000,1,same,1199,1,1
14,30,Memory,colour,repeat,1000,1000,1,same,1489,1,1
14,31,Memory,colour,repeat,50,1000,20,different,653,1,1
14,32,Memory,form,switch,50,50,1,same,1596,1,1
14,33,Memory,form,repeat,1000,50,0.05,different,1340,1,1
14,34,Memory,colour,switch,50,1000,20,different,1520,1,1
14,35,Memory,form,switch,1000,50,0.05,different,5584,1,1
14,36,Memory,form,repeat,50,1000,20,different,789,1,1
14,37,Memory,form,repeat,1000,50,0.05,different,1171,1,1
14,38,Memory,form,repeat,1000,1000,1,same,1664,0,1
14,39,Memory,form,repeat,50,1000,20,different,866,1,0
14,40,Memory,form,repeat,1000,50,0.05,different,2487,1,1
14,41,Memory,form,repeat,50,1000,20,different,2084,1,1
14,42,Memory,form,repeat,50,50,1,same,1091,1,1
14,43,Memory,form,repeat,50,50,1,same,1635,1,1
14,44,Memory,form,repeat,1000,50,0.05,different,855,1,1
14,45,Memory,colour,switch,1000,1000,1,same,1477,1,1
14,46,Memory,form,switch,1000,1000,1,same,2403,1,1
14,47,Memory,colour,switch,1000,1000,1,same,1324,1,1
14,48,Memory,colour,repeat,1000,1000,1,same,858,1,1
14,49,Memory,form,switch,50,1000,20,different,2222,1,1
14,50,Memory,colour,switch,1000,50,0.05,different,1929,1,1
14,51,Memory,form,switch,50,1000,20,different,1434,1,1
14,52,Memory,colour,switch,50,50,1,same,1585,1,1
14,53,Memory,colour,repeat,1000,50,0.05,different,1218,1,1
14,54,Memory,colour,repeat,50,1000,20,different,826,1,1
14,55,Memory,colour,repeat,50,50,1,same,717,1,1
14,56,Memory,colour,repeat,50,50,1,same,641,1,1
14,57,Memory,form,switch,1000,50,0.05,different,1311,1,1
14,58,Memory,form,repeat,1000,1000,1,same,1358,1,1
14,59,Memory,form,repeat,1000,1000,1,same,432,1,1
14,60,Memory,colour,switch,1000,1000,1,same,936,0,1
14,61,Memory,colour,repeat,1000,1000,1,same,1017,1,0
14,62,Memory,colour,repeat,50,1000,20,different,602,1,1
14,63,Memory,form,switch,1000,50,0.05,different,901,1,1
14,64,Memory,colour,switch,1000,1000,1,same,1385,1,1
14,65,Memory,form,null,1000,1000,1,same,2884,1,1
14,66,Memory,form,repeat,50,1000,20,different,1275,1,1
14,67,Memory,form,repeat,1000,50,0.05,different,702,1,1
14,68,Memory,form,repeat,50,1000,20,different,663,1,1
14,69,Memory,form,repeat,50,50,1,same,716,1,1
14,70,Memory,colour,switch,50,50,1,same,2304,1,1
14,71,Memory,form,switch,1000,50,0.05,different,2206,1,1
14,72,Memory,form,repeat,1000,1000,1,same,583,1,1
14,73,Memory,colour,switch,50,1000,20,different,1704,1,1
14,74,Memory,colour,repeat,1000,50,0.05,different,1507,1,1
14,75,Memory,colour,repeat,50,1000,20,different,638,1,1
14,76,Memory,colour,repeat,50,50,1,same,607,1,1
14,77,Memory,colour,repeat,1000,50,0.05,different,588,1,1
14,78,Memory,colour,repeat,1000,1000,1,same,549,1,1
14,79,Memory,form,switch,50,1000,20,different,3817,1,1
14,80,Memory,form,repeat,50,50,1,same,1949,1,1
14,81,Memory,colour,switch,50,50,1,same,1022,1,1
14,82,Memory,form,switch,50,50,1,same,1094,0,1
14,83,Memory,colour,switch,1000,50,0.05,different,1422,0,0
14,84,Memory,colour,repeat,1000,1000,1,same,654,1,0
14,85,Memory,form,switch,50,1000,20,different,1610,1,1
14,86,Memory,form,repeat,50,50,1,same,723,1,1
14,87,Memory,form,repeat,1000,50,0.05,different,1015,1,1
14,88,Memory,colour,switch,50,1000,20,different,1412,1,1
14,89,Memory,form,switch,50,50,1,same,1581,1,1
14,90,Memory,colour,switch,1000,50,0.05,different,2789,1,1
14,91,Memory,colour,repeat,50,1000,20,different,489,1,1
14,92,Memory,form,switch,1000,50,0.05,different,2218,1,1
14,93,Memory,colour,switch,1000,1000,1,same,973,1,1
14,94,Memory,colour,repeat,1000,1000,1,same,2135,0,1
14,95,Memory,colour,repeat,50,1000,20,different,4763,1,0
14,96,Memory,form,switch,50,50,1,same,1478,1,1
14,97,Memory,form,repeat,1000,50,0.05,different,1693,1,1
14,98,Memory,colour,switch,50,1000,20,different,1451,1,1
14,99,Memory,colour,repeat,1000,50,0.05,different,1399,1,1
14,100,Memory,colour,repeat,1000,1000,1,same,1107,1,1
14,101,Memory,colour,repeat,50,1000,20,different,990,1,1
14,102,Memory,colour,repeat,50,50,1,same,718,1,1
14,103,Memory,form,switch,50,50,1,same,1815,1,1
14,104,Memory,form,repeat,1000,50,0.05,different,2204,1,1
14,105,Memory,form,repeat,1000,1000,1,same,426,1,1
14,106,Memory,colour,switch,1000,1000,1,same,912,1,1
14,107,Memory,colour,repeat,1000,1000,1,same,790,1,1
14,108,Memory,colour,repeat,1000,1000,1,same,1334,1,1
14,109,Memory,colour,repeat,50,1000,20,different,642,1,1
14,110,Memory,form,switch,50,50,1,same,900,1,1
14,111,Memory,colour,switch,50,50,1,same,1472,1,1
14,112,Memory,form,switch,50,50,1,same,1667,1,1
14,113,Memory,colour,switch,1000,50,0.05,different,1222,1,1
14,114,Memory,colour,repeat,50,1000,20,different,827,1,1
14,115,Memory,form,switch,1000,50,0.05,different,957,1,1
14,116,Memory,form,repeat,1000,1000,1,same,1150,0,1
14,117,Memory,colour,switch,1000,1000,1,same,1617,1,0
14,118,Memory,form,switch,1000,1000,1,same,4764,1,1
14,119,Memory,form,repeat,1000,1000,1,same,3162,1,1
14,120,Memory,form,repeat,50,1000,20,different,600,1,1
14,121,Memory,form,repeat,1000,50,0.05,different,820,1,1
14,122,Memory,colour,switch,50,1000,20,different,1586,1,1
14,123,Memory,form,switch,1000,50,0.05,different,1342,1,1
14,124,Memory,form,repeat,50,1000,20,different,1041,1,1
14,125,Memory,colour,switch,1000,50,0.05,different,4327,1,1
14,126,Memory,colour,repeat,50,1000,20,different,784,1,1
14,127,Memory,form,switch,50,50,1,same,2847,1,1
14,128,Memory,form,repeat,50,50,1,same,1080,1,1
14,129,Memory,colour,null,50,50,1,same,877,0,1
14,130,Memory,colour,repeat,1000,50,0.05,different,1493,1,0
14,131,Memory,colour,repeat,50,1000,20,different,511,1,1
14,132,Memory,form,switch,50,50,1,same,1490,1,1
14,133,Memory,colour,switch,50,50,1,same,2000,1,1
14,134,Memory,colour,repeat,50,50,1,same,3279,1,1
14,135,Memory,form,switch,50,50,1,same,2100,1,1
14,136,Memory,colour,switch,50,50,1,same,1514,1,1
14,137,Memory,form,switch,50,50,1,same,1292,1,1
14,138,Memory,form,repeat,1000,50,0.05,different,2623,1,1
14,139,Memory,colour,switch,50,1000,20,different,1058,1,1
14,140,Memory,form,switch,50,50,1,same,1518,1,1
14,141,Memory,form,repeat,1000,50,0.05,different,3129,1,1
14,142,Memory,form,repeat,1000,1000,1,same,608,1,1
14,143,Memory,colour,switch,1000,1000,1,same,1041,1,1
14,144,Memory,form,switch,50,1000,20,different,1054,1,1
14,145,Memory,form,repeat,50,50,1,same,687,1,1
14,146,Memory,form,repeat,50,50,1,same,525,1,1
14,147,Memory,form,repeat,1000,50,0.05,different,449,1,1
14,148,Memory,colour,switch,1000,1000,1,same,1552,1,1
14,149,Memory,colour,repeat,1000,1000,1,same,494,1,1
14,150,Memory,colour,repeat,50,1000,20,different,381,1,1
14,151,Memory,form,switch,1000,50,0.05,different,1534,1,1
14,152,Memory,colour,switch,1000,1000,1,same,770,1,1
14,153,Memory,colour,repeat,1000,1000,1,same,953,1,1
14,154,Memory,colour,repeat,50,1000,20,different,828,1,1
14,155,Memory,colour,repeat,1000,50,0.05,different,544,1,1
14,156,Memory,form,switch,1000,1000,1,same,1550,1,1
14,157,Memory,colour,switch,1000,1000,1,same,1722,1,1
14,158,Memory,form,switch,1000,1000,1,same,3210,1,1
14,159,Memory,colour,switch,1000,1000,1,same,1046,1,1
14,160,Memory,form,switch,1000,1000,1,same,982,1,1
14,161,Memory,colour,switch,1000,1000,1,same,818,1,1
14,162,Memory,form,switch,50,1000,20,different,1250,1,1
14,163,Memory,colour,switch,1000,50,0.05,different,970,1,1
14,164,Memory,form,switch,50,1000,20,different,2038,1,1
14,165,Memory,colour,switch,50,50,1,same,1355,1,1
14,166,Memory,colour,repeat,1000,50,0.05,different,2351,1,1
14,167,Memory,form,switch,50,1000,20,different,3420,1,1
14,168,Memory,colour,switch,50,50,1,same,1152,1,1
14,169,Memory,form,switch,1000,50,0.05,different,3325,1,1
14,170,Memory,colour,switch,50,1000,20,different,1001,1,1
14,171,Memory,form,switch,1000,50,0.05,different,726,1,1
14,172,Memory,form,repeat,50,1000,20,different,1030,1,1
14,173,Memory,form,repeat,50,50,1,same,670,1,1
14,174,Memory,colour,switch,1000,50,0.05,different,1460,1,1
14,175,Memory,form,switch,1000,1000,1,same,998,1,1
14,176,Memory,form,repeat,50,1000,20,different,496,1,1
14,177,Memory,form,repeat,1000,50,0.05,different,491,1,1
14,178,Memory,form,repeat,50,1000,20,different,393,0,1
14,179,Memory,colour,switch,1000,50,0.05,different,1791,1,0
14,180,Memory,colour,repeat,50,1000,20,different,762,1,1
14,181,Memory,colour,repeat,50,50,1,same,664,1,1
14,182,Memory,form,switch,50,50,1,same,1703,1,1
14,183,Memory,colour,switch,1000,50,0.05,different,520,1,1
14,184,Memory,form,switch,50,1000,20,different,909,0,1
14,185,Memory,form,repeat,1000,50,0.05,different,2144,1,0
14,186,Memory,colour,switch,50,1000,20,different,868,1,1
14,187,Memory,form,switch,50,50,1,same,1045,0,1
14,188,Memory,colour,switch,50,50,1,same,1070,0,0
14,189,Memory,colour,repeat,1000,50,0.05,different,1060,1,0
14,190,Memory,form,switch,1000,1000,1,same,1041,1,1
14,191,Memory,form,repeat,1000,1000,1,same,762,1,1
14,192,Memory,colour,switch,50,1000,20,different,1111,1,1
14,193,Memory,form,null,1000,50,0.05,different,1179,0,1
14,194,Memory,colour,switch,50,1000,20,different,2301,1,0
14,195,Memory,colour,repeat,1000,50,0.05,different,1049,1,1
14,196,Memory,form,switch,1000,1000,1,same,1273,1,1
14,197,Memory,form,repeat,50,1000,20,different,536,1,1
14,198,Memory,colour,switch,1000,50,0.05,different,820,0,1
14,199,Memory,form,switch,1000,1000,1,same,800,1,0
14,200,Memory,form,repeat,50,1000,20,different,497,1,1
14,201,Memory,colour,switch,50,50,1,same,754,1,1
14,202,Memory,colour,repeat,1000,50,0.05,different,2109,1,1
14,203,Memory,form,switch,50,1000,20,different,1075,1,1
14,204,Memory,form,repeat,50,50,1,same,2079,1,1
14,205,Memory,form,repeat,50,50,1,same,728,1,1
14,206,Memory,colour,switch,1000,50,0.05,different,1616,1,1
14,207,Memory,form,switch,1000,1000,1,same,568,1,1
14,208,Memory,colour,switch,1000,1000,1,same,956,1,1
14,209,Memory,form,switch,50,1000,20,different,1447,1,1
14,210,Memory,form,repeat,1000,50,0.05,different,1604,1,1
14,211,Memory,form,repeat,1000,1000,1,same,2661,0,1
14,212,Memory,colour,switch,50,1000,20,different,1985,1,0
14,213,Memory,colour,repeat,1000,50,0.05,different,1379,1,1
14,214,Memory,colour,repeat,50,1000,20,different,978,1,1
14,215,Memory,form,switch,1000,50,0.05,different,1012,1,1
14,216,Memory,form,repeat,1000,1000,1,same,738,1,1
14,217,Memory,form,repeat,1000,1000,1,same,747,1,1
14,218,Memory,colour,switch,1000,1000,1,same,1007,1,1
14,219,Memory,colour,repeat,50,1000,20,different,818,1,1
14,220,Memory,colour,repeat,1000,50,0.05,different,719,1,1
14,221,Memory,form,switch,1000,1000,1,same,5194,1,1
14,222,Memory,form,repeat,1000,1000,1,same,854,1,1
14,223,Memory,form,repeat,50,1000,20,different,611,1,1
14,224,Memory,colour,switch,50,50,1,same,918,1,1
14,225,Memory,form,switch,50,50,1,same,4265,1,1
14,226,Memory,colour,switch,50,50,1,same,1025,1,1
14,227,Memory,form,switch,50,50,1,same,1011,1,1
14,228,Memory,colour,switch,50,50,1,same,809,1,1
14,229,Memory,colour,repeat,1000,50,0.05,different,944,1,1
14,230,Memory,form,switch,50,1000,20,different,864,0,1
14,231,Memory,colour,switch,50,50,1,same,1318,1,0
14,232,Memory,form,switch,50,50,1,same,6141,1,1
14,233,Memory,form,repeat,1000,50,0.05,different,680,1,1
14,234,Memory,colour,switch,50,1000,20,different,1033,1,1
14,235,Memory,form,switch,50,50,1,same,1703,1,1
14,236,Memory,colour,switch,1000,50,0.05,different,2482,1,1
14,237,Memory,colour,repeat,1000,1000,1,same,954,1,1
14,238,Memory,form,switch,50,1000,20,different,1525,1,1
14,239,Memory,colour,switch,50,50,1,same,1403,1,1
14,240,Memory,colour,repeat,1000,50,0.05,different,569,1,1
14,241,Memory,colour,repeat,1000,1000,1,same,1082,1,1
14,242,Memory,form,switch,1000,1000,1,same,3636,1,1
14,243,Memory,colour,switch,1000,1000,1,same,1091,1,1
14,244,Memory,form,switch,50,1000,20,different,1907,1,1
14,245,Memory,colour,switch,50,50,1,same,944,1,1
14,246,Memory,form,switch,50,50,1,same,1885,1,1
14,247,Memory,form,repeat,1000,50,0.05,different,4031,1,1
14,248,Memory,form,repeat,1000,1000,1,same,697,1,1
14,249,Memory,colour,switch,50,1000,20,different,1096,1,1
14,250,Memory,colour,repeat,50,50,1,same,728,1,1
14,251,Memory,form,switch,50,50,1,same,1133,1,1
14,252,Memory,form,repeat,50,50,1,same,716,0,1
14,253,Memory,colour,switch,1000,50,0.05,different,1463,1,0
14,254,Memory,colour,repeat,1000,1000,1,same,784,1,1
14,255,Memory,colour,repeat,50,1000,20,different,844,1,1
14,256,Memory,colour,repeat,50,50,1,same,569,1,1
14,257,Memory,form,null,50,50,1,same,3647,1,1
14,258,Memory,form,repeat,1000,50,0.05,different,3368,1,1
14,259,Memory,form,repeat,50,1000,20,different,652,1,1
14,260,Memory,colour,switch,50,50,1,same,1043,1,1
14,261,Memory,form,switch,50,50,1,same,1514,1,1
14,262,Memory,colour,switch,1000,50,0.05,different,1102,1,1
14,263,Memory,colour,repeat,50,1000,20,different,1915,1,1
14,264,Memory,colour,repeat,1000,50,0.05,different,2443,1,1
14,265,Memory,colour,repeat,1000,1000,1,same,818,1,1
14,266,Memory,colour,repeat,1000,1000,1,same,699,1,1
14,267,Memory,colour,repeat,50,1000,20,different,721,1,1
14,268,Memory,colour,repeat,1000,50,0.05,different,889,0,1
14,269,Memory,colour,repeat,50,1000,20,different,829,1,0
14,270,Memory,colour,repeat,1000,50,0.05,different,1089,1,1
14,271,Memory,form,switch,1000,1000,1,same,1506,1,1
14,272,Memory,form,repeat,1000,1000,1,same,1592,1,1
14,273,Memory,colour,switch,1000,1000,1,same,1446,1,1
14,274,Memory,colour,repeat,1000,1000,1,same,2888,1,1
14,275,Memory,colour,repeat,1000,1000,1,same,810,1,1
14,276,Memory,form,switch,50,1000,20,different,1151,0,1
14,277,Memory,colour,switch,50,50,1,same,2892,1,0
14,278,Memory,form,switch,1000,50,0.05,different,987,1,1
14,279,Memory,form,repeat,1000,1000,1,same,835,1,1
14,280,Memory,form,repeat,1000,1000,1,same,807,0,1
14,281,Memory,form,repeat,1000,1000,1,same,508,0,0
14,282,Memory,colour,switch,50,1000,20,different,1457,1,0
14,283,Memory,form,switch,50,50,1,same,1753,1,1
14,284,Memory,colour,switch,50,50,1,same,2047,1,1
14,285,Memory,form,switch,50,50,1,same,2568,1,1
14,286,Memory,form,repeat,50,50,1,same,2308,1,1
14,287,Memory,form,repeat,50,50,1,same,1172,1,1
14,288,Memory,colour,switch,1000,50,0.05,different,1366,1,1
14,289,Memory,form,switch,50,1000,20,different,2454,1,1
14,290,Memory,form,repeat,1000,50,0.05,different,618,1,1
14,291,Memory,form,repeat,50,1000,20,different,632,1,1
14,292,Memory,colour,switch,50,50,1,same,2368,1,1
14,293,Memory,colour,repeat,1000,50,0.05,different,1414,1,1
14,294,Memory,colour,repeat,50,1000,20,different,1010,1,1
14,295,Memory,form,switch,50,50,1,same,1424,1,1
14,296,Memory,colour,switch,1000,50,0.05,different,1806,1,1
14,297,Memory,colour,repeat,1000,1000,1,same,1971,1,1
14,298,Memory,form,switch,50,1000,20,different,2265,1,1
14,299,Memory,colour,switch,1000,50,0.05,different,1823,1,1
14,300,Memory,form,switch,50,1000,20,different,1263,1,1
14,301,Memory,colour,switch,50,50,1,same,4207,1,1
14,302,Memory,form,switch,50,50,1,same,1494,1,1
14,303,Memory,colour,switch,50,50,1,same,1215,1,1
14,304,Memory,form,switch,1000,50,0.05,different,994,1,1
14,305,Memory,form,repeat,1000,1000,1,same,805,1,1
14,306,Memory,form,repeat,50,1000,20,different,716,1,1
14,307,Memory,form,repeat,1000,50,0.05,different,778,1,1
14,308,Memory,colour,switch,1000,1000,1,same,1395,1,1
14,309,Memory,colour,repeat,50,1000,20,different,1387,1,1
14,310,Memory,colour,repeat,1000,50,0.05,different,654,1,1
14,311,Memory,form,switch,1000,1000,1,same,946,1,1
14,312,Memory,form,repeat,50,1000,20,different,444,1,1
14,313,Memory,form,repeat,50,50,1,same,531,1,1
14,314,Memory,form,repeat,1000,50,0.05,different,1512,1,1
14,315,Memory,colour,switch,50,1000,20,different,956,1,1
14,316,Memory,form,switch,1000,50,0.05,different,1432,1,1
14,317,Memory,colour,switch,50,1000,20,different,1252,1,1
14,318,Memory,colour,repeat,50,50,1,same,1026,1,1
14,319,Memory,colour,repeat,50,50,1,same,647,1,1
14,320,Memory,form,switch,1000,50,0.05,different,837,1,1
14,321,Memory,form,null,50,1000,20,different,552,1,1
14,322,Memory,colour,switch,1000,50,0.05,different,1118,1,1
14,323,Memory,form,switch,50,1000,20,different,1098,1,1
14,324,Memory,form,repeat,50,50,1,same,830,1,1
14,325,Memory,colour,switch,50,50,1,same,1149,1,1
14,326,Memory,colour,repeat,50,50,1,same,679,1,1
14,327,Memory,form,switch,50,50,1,same,1901,1,1
14,328,Memory,form,repeat,1000,50,0.05,different,904,1,1
14,329,Memory,form,repeat,50,1000,20,different,825,1,1
14,330,Memory,form,repeat,50,50,1,same,800,1,1
14,331,Memory,colour,switch,1000,50,0.05,different,1124,1,1
14,332,Memory,colour,repeat,1000,1000,1,same,529,1,1
14,333,Memory,colour,repeat,1000,1000,1,same,557,1,1
14,334,Memory,form,switch,1000,1000,1,same,1142,1,1
14,335,Memory,form,repeat,50,1000,20,different,541,1,1
14,336,Memory,form,repeat,1000,50,0.05,different,967,1,1
14,337,Memory,form,repeat,50,1000,20,different,586,1,1
14,338,Memory,form,repeat,1000,50,0.05,different,861,1,1
14,339,Memory,colour,switch,1000,1000,1,same,1474,1,1
14,340,Memory,colour,repeat,50,1000,20,different,419,1,1
14,341,Memory,form,switch,1000,50,0.05,different,905,0,1
14,342,Memory,colour,switch,1000,1000,1,same,1294,1,0
14,343,Memory,form,switch,1000,1000,1,same,2784,1,1
14,344,Memory,colour,switch,50,1000,20,different,2414,1,1
14,345,Memory,colour,repeat,50,50,1,same,582,1,1
14,346,Memory,form,switch,1000,50,0.05,different,2466,1,1
14,347,Memory,form,repeat,1000,1000,1,same,709,1,1
14,348,Memory,form,repeat,1000,1000,1,same,1557,0,1
14,349,Memory,form,repeat,1000,1000,1,same,1358,1,0
14,350,Memory,colour,switch,1000,1000,1,same,1490,1,1
14,351,Memory,colour,repeat,1000,1000,1,same,1614,1,1
14,352,Memory,colour,repeat,50,1000,20,different,605,1,1
14,353,Memory,colour,repeat,50,50,1,same,506,1,1
14,354,Memory,colour,repeat,1000,50,0.05,different,554,0,1
14,355,Memory,form,switch,1000,1000,1,same,1782,1,0
14,356,Memory,colour,switch,50,1000,20,different,1892,1,1
14,357,Memory,colour,repeat,1000,50,0.05,different,3589,1,1
14,358,Memory,colour,repeat,50,1000,20,different,507,1,1
14,359,Memory,colour,repeat,50,50,1,same,1900,1,1
14,360,Memory,form,switch,1000,50,0.05,different,1325,1,1
14,361,Memory,form,repeat,50,1000,20,different,938,0,1
14,362,Memory,colour,switch,1000,50,0.05,different,3399,1,0
14,363,Memory,form,switch,50,1000,20,different,1272,1,1
14,364,Memory,form,repeat,50,50,1,same,759,1,1
14,365,Memory,colour,switch,50,50,1,same,1459,1,1
14,366,Memory,colour,repeat,50,50,1,same,860,1,1
14,367,Memory,form,switch,50,50,1,same,967,1,1
14,368,Memory,colour,switch,1000,50,0.05,different,1074,0,1
14,369,Memory,colour,repeat,1000,1000,1,same,1154,0,0
14,370,Memory,colour,repeat,1000,1000,1,same,2026,1,0
14,371,Memory,form,switch,50,1000,20,different,2166,1,1
14,372,Memory,colour,switch,50,50,1,same,1236,1,1
14,373,Memory,colour,repeat,50,50,1,same,729,1,1
14,374,Memory,form,switch,1000,50,0.05,different,1597,1,1
14,375,Memory,form,repeat,50,1000,20,different,395,1,1
14,376,Memory,form,repeat,1000,50,0.05,different,1153,1,1
14,377,Memory,colour,switch,1000,1000,1,same,1575,1,1
14,378,Memory,colour,repeat,50,1000,20,different,445,1,1
14,379,Memory,form,switch,50,50,1,same,950,1,1
14,380,Memory,form,repeat,1000,50,0.05,different,1745,1,1
14,381,Memory,form,repeat,50,1000,20,different,607,0,1
14,382,Memory,colour,switch,1000,50,0.05,different,2651,1,0
14,383,Memory,colour,repeat,50,1000,20,different,578,1,1
14,384,Memory,form,switch,50,50,1,same,1591,1,1
17,1,Memory,colour,null,50,1000,20,different,964,1,1
17,2,Memory,form,switch,50,50,1,same,740,1,1
17,3,Memory,colour,switch,1000,50,0.05,different,517,1,1
17,4,Memory,colour,repeat,50,1000,20,different,609,1,1
17,5,Memory,colour,repeat,1000,50,0.05,different,1057,1,1
17,6,Memory,colour,repeat,50,1000,20,different,425,1,1
17,7,Memory,colour,repeat,50,50,1,same,550,1,1
17,8,Memory,form,switch,1000,50,0.05,different,635,0,1
17,9,Memory,colour,switch,1000,1000,1,same,2009,1,0
17,10,Memory,form,switch,50,1000,20,different,472,0,1
17,11,Memory,colour,switch,50,50,1,same,1914,0,0
17,12,Memory,form,switch,1000,50,0.05,different,4506,0,0
17,13,Memory,colour,switch,50,1000,20,different,13311,0,0
17,14,Memory,form,switch,1000,50,0.05,different,6008,1,0
17,15,Memory,colour,switch,50,1000,20,different,3168,1,1
17,16,Memory,form,switch,1000,50,0.05,different,6400,1,1
17,17,Memory,form,repeat,50,1000,20,different,697,1,1
17,18,Memory,colour,switch,50,50,1,same,1942,1,1
17,19,Memory,colour,repeat,1000,50,0.05,different,6982,1,1
17,20,Memory,colour,repeat,1000,1000,1,same,1829,1,1
17,21,Memory,colour,repeat,1000,1000,1,same,1332,0,1
17,22,Memory,form,switch,1000,1000,1,same,4218,0,0
17,23,Memory,form,repeat,50,1000,20,different,4304,1,0
17,24,Memory,colour,switch,50,50,1,same,2385,1,1
17,25,Memory,form,switch,1000,50,0.05,different,4095,1,1
17,26,Memory,colour,switch,1000,1000,1,same,10521,1,1
17,27,Memory,form,switch,1000,1000,1,same,6764,1,1
17,28,Memory,colour,switch,50,1000,20,different,905,1,1
17,29,Memory,colour,repeat,1000,50,0.05,different,750,0,1
17,30,Memory,colour,repeat,1000,1000,1,same,1147,1,0
17,31,Memory,form,switch,1000,1000,1,same,1398,0,1
17,32,Memory,form,repeat,1000,1000,1,same,5880,1,0
17,33,Memory,form,repeat,50,1000,20,different,3191,0,1
17,34,Memory,colour,switch,1000,50,0.05,different,935,0,0
17,35,Memory,colour,repeat,50,1000,20,different,1054,1,0
17,36,Memory,colour,repeat,50,50,1,same,785,1,1
17,37,Memory,form,switch,50,50,1,same,6847,1,1
17,38,Memory,colour,switch,50,50,1,same,1306,0,1
17,39,Memory,colour,repeat,50,50,1,same,2626,0,0
17,40,Memory,form,switch,50,50,1,same,1133,1,0
17,41,Memory,colour,switch,1000,50,0.05,different,5177,1,1
17,42,Memory,form,switch,50,1000,20,different,1679,1,1
17,43,Memory,form,repeat,50,50,1,same,975,0,1
17,44,Memory,colour,switch,1000,50,0.05,different,1203,0,0
17,45,Memory,form,switch,50,1000,20,different,2186,1,0
17,46,Memory,form,repeat,50,50,1,same,3909,1,1
17,47,Memory,colour,switch,50,50,1,same,1563,1,1
17,48,Memory,colour,repeat,1000,50,0.05,different,9089,1,1
17,49,Memory,form,switch,50,1000,20,different,2234,1,1
17,50,Memory,colour,switch,1000,50,0.05,different,581,0,1
17,51,Memory,form,switch,1000,1000,1,same,2437,1,0
17,52,Memory,form,repeat,50,1000,20,different,6058,1,1
17,53,Memory,form,repeat,50,50,1,same,8158,1,1
17,54,Memory,colour,switch,1000,50,0.05,different,15866,1,1
17,55,Memory,form,switch,50,1000,20,different,2204,0,1
17,56,Memory,form,repeat,50,50,1,same,4274,1,0
17,57,Memory,form,repeat,1000,50,0.05,different,1195,1,1
17,58,Memory,colour,switch,50,1000,20,different,1027,0,1
17,59,Memory,form,switch,50,50,1,same,5560,1,0
17,60,Memory,form,repeat,1000,50,0.05,different,2191,1,1
17,61,Memory,form,repeat,1000,1000,1,same,1289,1,1
17,62,Memory,form,repeat,1000,1000,1,same,1549,1,1
17,63,Memory,form,repeat,1000,1000,1,same,666,1,1
17,64,Memory,colour,switch,1000,1000,1,same,5595,1,1
17,65,Memory,colour,null,1000,1000,1,same,3909,1,1
17,66,Memory,form,switch,1000,1000,1,same,3088,1,1
17,67,Memory,colour,switch,1000,1000,1,same,5112,0,1
17,68,Memory,form,switch,50,1000,20,different,1444,1,0
17,69,Memory,form,repeat,50,50,1,same,675,1,1
17,70,Memory,colour,switch,50,50,1,same,4876,0,1
17,71,Memory,colour,repeat,1000,50,0.05,different,5754,1,0
17,72,Memory,form,switch,1000,1000,1,same,3780,1,1
17,73,Memory,colour,switch,1000,1000,1,same,1505,1,1
17,74,Memory,form,switch,1000,1000,1,same,1837,1,1
17,75,Memory,colour,switch,50,1000,20,different,2722,1,1
17,76,Memory,colour,repeat,1000,50,0.05,different,1424,1,1
17,77,Memory,form,switch,1000,1000,1,same,4656,1,1
17,78,Memory,colour,switch,50,1000,20,different,2654,0,1
17,79,Memory,colour,repeat,50,50,1,same,540,1,0
17,80,Memory,form,switch,50,50,1,same,10145,0,1
17,81,Memory,form,repeat,50,50,1,same,1443,0,0
17,82,Memory,colour,switch,1000,50,0.05,different,13414,1,0
17,83,Memory,colour,repeat,1000,1000,1,same,1524,1,1
17,84,Memory,form,switch,1000,1000,1,same,3984,1,1
17,85,Memory,form,repeat,50,1000,20,different,945,0,1
17,86,Memory,form,repeat,1000,50,0.05,different,1718,1,0
17,87,Memory,colour,switch,50,1000,20,different,3120,1,1
17,88,Memory,colour,repeat,1000,50,0.05,different,1325,1,1
17,89,Memory,colour,repeat,1000,1000,1,same,849,1,1
17,90,Memory,form,switch,50,1000,20,different,1338,1,1
17,91,Memory,colour,switch,50,50,1,same,988,1,1
17,92,Memory,colour,repeat,50,50,1,same,1232,1,1
17,93,Memory,form,switch,50,50,1,same,989,1,1
17,94,Memory,colour,switch,50,50,1,same,1028,0,1
17,95,Memory,form,switch,50,50,1,same,1254,1,0
17,96,Memory,colour,switch,50,50,1,same,1345,1,1
17,97,Memory,form,switch,50,50,1,same,1172,0,1
17,98,Memory,form,repeat,50,50,1,same,1292,0,0
17,99,Memory,colour,switch,50,50,1,same,3642,1,0
17,100,Memory,form,switch,1000,50,0.05,different,5222,1,1
17,101,Memory,form,repeat,50,1000,20,different,1370,1,1
17,102,Memory,colour,switch,50,50,1,same,1671,0,1
17,103,Memory,colour,repeat,50,50,1,same,5972,1,0
17,104,Memory,form,switch,1000,50,0.05,different,3889,1,1
17,105,Memory,form,repeat,50,1000,20,different,1340,0,1
17,106,Memory,colour,switch,1000,50,0.05,different,4571,1,0
17,107,Memory,form,switch,1000,1000,1,same,3927,1,1
17,108,Memory,colour,switch,50,1000,20,different,2189,1,1
17,109,Memory,form,switch,1000,50,0.05,different,4415,1,1
17,110,Memory,form,repeat,1000,1000,1,same,942,1,1
17,111,Memory,colour,switch,1000,1000,1,same,1688,1,1
17,112,Memory,form,switch,1000,1000,1,same,1721,1,1
17,113,Memory,form,repeat,1000,1000,1,same,2509,1,1
17,114,Memory,form,repeat,50,1000,20,different,807,1,1
17,115,Memory,colour,switch,50,50,1,same,1308,1,1
17,116,Memory,colour,repeat,1000,50,0.05,different,1715,1,1
17,117,Memory,colour,repeat,1000,1000,1,same,1630,1,1
17,118,Memory,colour,repeat,50,1000,20,different,1084,1,1
17,119,Memory,form,switch,1000,50,0.05,different,2150,1,1
17,120,Memory,form,repeat,1000,1000,1,same,1313,1,1
17,121,Memory,form,repeat,50,1000,20,different,2618,0,1
17,122,Memory,colour,switch,1000,50,0.05,different,1362,1,0
17,123,Memory,form,switch,50,1000,20,different,2315,1,1
17,124,Memory,form,repeat,50,50,1,same,739,1,1
17,125,Memory,colour,switch,50,50,1,same,1799,1,1
17,126,Memory,colour,repeat,1000,50,0.05,different,1035,1,1
17,127,Memory,colour,repeat,1000,1000,1,same,2122,1,1
17,128,Memory,form,switch,50,1000,20,different,2886,1,1
17,129,Memory,colour,null,50,50,1,same,4513,1,1
17,130,Memory,form,switch,1000,50,0.05,different,1931,1,1
17,131,Memory,colour,switch,50,1000,20,different,3361,1,1
17,132,Memory,form,switch,50,50,1,same,6778,1,1
17,133,Memory,form,repeat,50,50,1,same,787,1,1
17,134,Memory,colour,switch,1000,50,0.05,different,2026,1,1
17,135,Memory,form,switch,50,1000,20,different,1697,0,1
17,136,Memory,colour,switch,1000,50,0.05,different,1884,1,0
17,137,Memory,colour,repeat,1000,1000,1,same,1259,1,1
17,138,Memory,form,switch,50,1000,20,different,1853,0,1
17,139,Memory,colour,switch,50,50,1,same,7010,1,0
17,140,Memory,colour,repeat,50,50,1,same,938,1,1
17,141,Memory,colour,repeat,50,50,1,same,2046,1,1
17,142,Memory,form,switch,50,50,1,same,2420,1,1
17,143,Memory,colour,switch,1000,50,0.05,different,1915,1,1
17,144,Memory,colour,repeat,50,1000,20,different,778,1,1
17,145,Memory,colour,repeat,50,50,1,same,902,1,1
17,146,Memory,colour,repeat,50,50,1,same,808,1,1
17,147,Memory,form,switch,1000,50,0.05,different,1956,1,1
17,148,Memory,form,repeat,1000,1000,1,same,1385,1,1
17,149,Memory,colour,switch,1000,1000,1,same,1173,1,1
17,150,Memory,form,switch,50,1000,20,different,1245,0,1
17,151,Memory,form,repeat,50,50,1,same,1287,1,0
17,152,Memory,form,repeat,1000,50,0.05,different,2797,1,1
17,153,Memory,form,repeat,50,1000,20,different,871,1,1
17,154,Memory,colour,switch,50,50,1,same,1358,1,1
17,155,Memory,form,switch,1000,50,0.05,different,1952,1,1
17,156,Memory,form,repeat,1000,1000,1,same,2783,1,1
17,157,Memory,form,repeat,1000,1000,1,same,4223,1,1
17,158,Memory,form,repeat,1000,1000,1,same,2090,1,1
17,159,Memory,colour,switch,1000,1000,1,same,1393,0,1
17,160,Memory,form,switch,50,1000,20,different,2329,1,0
17,161,Memory,colour,switch,50,50,1,same,1125,1,1
17,162,Memory,colour,repeat,1000,50,0.05,different,2843,1,1
17,163,Memory,form,switch,50,1000,20,different,1469,1,1
17,164,Memory,form,repeat,50,50,1,same,1023,1,1
17,165,Memory,colour,switch,50,50,1,same,1170,1,1
17,166,Memory,form,switch,50,50,1,same,1589,1,1
17,167,Memory,colour,switch,1000,50,0.05,different,1440,1,1
17,168,Memory,colour,repeat,50,1000,20,different,1074,1,1
17,169,Memory,form,switch,1000,50,0.05,different,1230,1,1
17,170,Memory,colour,switch,1000,1000,1,same,1537,1,1
17,171,Memory,colour,repeat,1000,1000,1,same,1180,1,1
17,172,Memory,form,switch,1000,1000,1,same,788,0,1
17,173,Memory,colour,switch,1000,1000,1,same,4047,1,0
17,174,Memory,colour,repeat,50,1000,20,different,798,1,1
17,175,Memory,colour,repeat,1000,50,0.05,different,2988,1,1
17,176,Memory,form,switch,50,1000,20,different,1589,1,1
17,177,Memory,form,repeat,50,50,1,same,1101,1,1
17,178,Memory,form,repeat,1000,50,0.05,different,760,1,1
17,179,Memory,colour,switch,50,1000,20,different,2508,1,1
17,180,Memory,colour,repeat,1000,50,0.05,different,1295,1,1
17,181,Memory,colour,repeat,50,1000,20,different,805,1,1
17,182,Memory,colour,repeat,1000,50,0.05,different,739,1,1
17,183,Memory,form,switch,50,1000,20,different,1411,1,1
17,184,Memory,form,repeat,1000,50,0.05,different,1471,1,1
17,185,Memory,form,repeat,50,1000,20,different,551,1,1
17,186,Memory,form,repeat,50,50,1,same,1246,1,1
17,187,Memory,form,repeat,1000,50,0.05,different,1922,1,1
17,188,Memory,colour,switch,50,1000,20,different,1010,1,1
17,189,Memory,form,switch,1000,50,0.05,different,1229,1,1
17,190,Memory,colour,switch,1000,1000,1,same,3279,1,1
17,191,Memory,colour,repeat,1000,1000,1,same,808,1,1
17,192,Memory,form,switch,1000,1000,1,same,1482,1,1
17,193,Memory,form,null,1000,1000,1,same,4689,1,1
17,194,Memory,form,repeat,50,1000,20,different,873,1,1
17,195,Memory,form,repeat,1000,50,0.05,different,575,1,1
17,196,Memory,colour,switch,50,1000,20,different,1223,1,1
17,197,Memory,colour,repeat,50,50,1,same,786,1,1
17,198,Memory,form,switch,50,50,1,same,4077,1,1
17,199,Memory,colour,switch,50,50,1,same,1063,1,1
17,200,Memory,form,switch,50,50,1,same,1924,1,1
17,201,Memory,colour,switch,1000,50,0.05,different,1391,1,1
17,202,Memory,form,switch,1000,1000,1,same,2908,1,1
17,203,Memory,colour,switch,1000,1000,1,same,2177,1,1
17,204,Memory,form,switch,50,1000,20,different,1823,1,1
17,205,Memory,colour,switch,50,50,1,same,4663,1,1
17,206,Memory,form,switch,1000,50,0.05,different,2061,1,1
17,207,Memory,form,repeat,50,1000,20,different,1042,1,1
17,208,Memory,colour,switch,1000,50,0.05,different,874,0,1
17,209,Memory,form,switch,50,1000,20,different,8336,1,0
17,210,Memory,form,repeat,50,50,1,same,923,1,1
17,211,Memory,form,repeat,1000,50,0.05,different,1097,1,1
17,212,Memory,colour,switch,1000,1000,1,same,1040,1,1
17,213,Memory,colour,repeat,50,1000,20,different,635,1,1
17,214,Memory,form,switch,1000,50,0.05,different,1141,1,1
17,215,Memory,form,repeat,50,1000,20,different,2320,1,1
17,216,Memory,form,repeat,1000,50,0.05,different,1596,1,1
17,217,Memory,form,repeat,50,1000,20,different,1016,1,1
17,218,Memory,form,repeat,1000,50,0.05,different,850,1,1
17,219,Memory,form,repeat,50,1000,20,different,614,1,1
17,220,Memory,form,repeat,1000,50,0.05,different,2067,1,1
17,221,Memory,form,repeat,1000,1000,1,same,641,1,1
17,222,Memory,form,repeat,50,1000,20,different,440,1,1
17,223,Memory,colour,switch,1000,50,0.05,different,1144,1,1
17,224,Memory,form,switch,50,1000,20,different,2032,1,1
17,225,Memory,colour,switch,1000,50,0.05,different,504,1,1
17,226,Memory,form,switch,1000,1000,1,same,1099,1,1
17,227,Memory,colour,switch,50,1000,20,different,1030,0,1
17,228,Memory,colour,repeat,50,50,1,same,683,1,0
17,229,Memory,form,switch,1000,50,0.05,different,3236,1,1
17,230,Memory,form,repeat,1000,1000,1,same,621,1,1
17,231,Memory,colour,switch,1000,1000,1,same,3762,1,1
17,232,Memory,form,switch,50,1000,20,different,1247,1,1
17,233,Memory,colour,switch,50,50,1,same,966,1,1
17,234,Memory,form,switch,1000,50,0.05,different,2248,1,1
17,235,Memory,colour,switch,1000,1000,1,same,649,0,1
17,236,Memory,colour,repeat,1000,1000,1,same,3513,1,0
17,237,Memory,form,switch,50,1000,20,different,1654,1,1
17,238,Memory,form,repeat,1000,50,0.05,different,1714,1,1
17,239,Memory,colour,switch,1000,1000,1,same,1365,1,1
17,240,Memory,colour,repeat,50,1000,20,different,1059,1,1
17,241,Memory,colour,repeat,1000,50,0.05,different,3264,1,1
17,242,Memory,colour,repeat,50,1000,20,different,616,1,1
17,243,Memory,colour,repeat,1000,50,0.05,different,782,1,1
17,244,Memory,colour,repeat,50,1000,20,different,670,1,1
17,245,Memory,colour,repeat,50,50,1,same,625,1,1
17,246,Memory,form,switch,50,50,1,same,1080,1,1
17,247,Memory,colour,switch,1000,50,0.05,different,1050,1,1
17,248,Memory,colour,repeat,50,1000,20,different,571,1,1
17,249,Memory,colour,repeat,1000,50,0.05,different,620,1,1
17,250,Memory,form,switch,50,1000,20,different,1162,1,1
17,251,Memory,colour,switch,1000,50,0.05,different,702,1,1
17,252,Memory,colour,repeat,50,1000,20,different,824,1,1
17,253,Memory,form,switch,50,50,1,same,1418,1,1
17,254,Memory,colour,switch,50,50,1,same,1249,1,1
17,255,Memory,colour,repeat,1000,50,0.05,different,695,1,1
17,256,Memory,colour,repeat,50,1000,20,different,713,1,1
17,257,Memory,colour,null,50,50,1,same,2074,1,1
17,258,Memory,colour,repeat,1000,50,0.05,different,1036,1,1
17,259,Memory,form,switch,1000,1000,1,same,3017,1,1
17,260,Memory,colour,switch,50,1000,20,different,949,1,1
17,261,Memory,form,switch,50,50,1,same,1631,1,1
17,262,Memory,form,repeat,1000,50,0.05,different,4558,1,1
17,263,Memory,form,repeat,1000,1000,1,same,701,1,1
17,264,Memory,colour,switch,50,1000,20,different,1267,1,1
17,265,Memory,colour,repeat,50,50,1,same,911,1,1
17,266,Memory,colour,repeat,50,50,1,same,627,1,1
17,267,Memory,form,switch,50,50,1,same,895,1,1
17,268,Memory,colour,switch,50,50,1,same,1263,1,1
17,269,Memory,colour,repeat,1000,50,0.05,different,1589,1,1
17,270,Memory,form,switch,50,1000,20,different,10560,1,1
17,271,Memory,colour,switch,50,50,1,same,1362,1,1
17,272,Memory,colour,repeat,50,50,1,same,1010,1,1
17,273,Memory,form,switch,1000,50,0.05,different,5689,1,1
17,274,Memory,colour,switch,50,1000,20,different,1108,0,1
17,275,Memory,colour,repeat,1000,50,0.05,different,823,1,0
17,276,Memory,form,switch,1000,1000,1,same,1615,1,1
17,277,Memory,colour,switch,1000,1000,1,same,1932,1,1
17,278,Memory,form,switch,50,1000,20,different,1268,1,1
17,279,Memory,form,repeat,1000,50,0.05,different,1758,0,1
17,280,Memory,form,repeat,50,1000,20,different,930,1,0
17,281,Memory,colour,switch,1000,50,0.05,different,4413,1,1
17,282,Memory,colour,repeat,1000,1000,1,same,593,1,1
17,283,Memory,form,switch,1000,1000,1,same,1495,1,1
17,284,Memory,form,repeat,1000,1000,1,same,1529,1,1
17,285,Memory,colour,switch,50,1000,20,different,1241,1,1
17,286,Memory,colour,repeat,1000,50,0.05,different,547,1,1
17,287,Memory,colour,repeat,1000,1000,1,same,502,1,1
17,288,Memory,form,switch,50,1000,20,different,1688,1,1
17,289,Memory,form,repeat,50,50,1,same,1553,1,1
17,290,Memory,colour,switch,50,50,1,same,1409,1,1
17,291,Memory,form,switch,50,50,1,same,2304,1,1
17,292,Memory,colour,switch,50,50,1,same,1000,0,1
17,293,Memory,form,switch,50,50,1,same,1373,1,0
17,294,Memory,colour,switch,1000,50,0.05,different,1118,1,1
17,295,Memory,colour,repeat,1000,1000,1,same,843,1,1
17,296,Memory,form,switch,50,1000,20,different,1070,1,1
17,297,Memory,form,repeat,50,50,1,same,977,1,1
17,298,Memory,form,repeat,50,50,1,same,706,1,1
17,299,Memory,form,repeat,1000,50,0.05,different,1099,1,1
17,300,Memory,colour,switch,1000,1000,1,same,2692,1,1
17,301,Memory,colour,repeat,1000,1000,1,same,7045,1,1
17,302,Memory,colour,repeat,50,1000,20,different,1564,1,1
17,303,Memory,form,switch,1000,50,0.05,different,990,1,1
17,304,Memory,form,repeat,1000,1000,1,same,723,1,1
17,305,Memory,form,repeat,50,1000,20,different,1109,1,1
17,306,Memory,form,repeat,1000,50,0.05,different,696,1,1
17,307,Memory,colour,switch,50,1000,20,different,980,1,1
17,308,Memory,form,switch,1000,50,0.05,different,664,1,1
17,309,Memory,form,repeat,1000,1000,1,same,759,1,1
17,310,Memory,colour,switch,50,1000,20,different,1990,1,1
17,311,Memory,form,switch,50,50,1,same,1372,1,1
17,312,Memory,form,repeat,1000,50,0.05,different,1867,1,1
17,313,Memory,colour,switch,1000,1000,1,same,3148,1,1
17,314,Memory,form,switch,50,1000,20,different,2434,0,1
17,315,Memory,colour,switch,50,50,1,same,1862,1,0
17,316,Memory,colour,repeat,1000,50,0.05,different,2025,1,1
17,317,Memory,colour,repeat,1000,1000,1,same,894,1,1
17,318,Memory,form,switch,50,1000,20,different,9556,1,1
17,319,Memory,colour,switch,1000,50,0.05,different,1375,1,1
17,320,Memory,form,switch,50,1000,20,different,9449,1,1
17,321,Memory,colour,null,1000,50,0.05,different,1026,1,1
17,322,Memory,form,switch,50,1000,20,different,1803,1,1
17,323,Memory,form,repeat,50,50,1,same,776,1,1
17,324,Memory,form,repeat,1000,50,0.05,different,1636,1,1
17,325,Memory,colour,switch,50,1000,20,different,837,1,1
17,326,Memory,colour,repeat,50,50,1,same,1016,1,1
17,327,Memory,form,switch,1000,50,0.05,different,761,1,1
17,328,Memory,colour,switch,50,1000,20,different,1332,1,1
17,329,Memory,form,switch,50,50,1,same,3048,1,1
17,330,Memory,colour,switch,1000,50,0.05,different,1050,1,1
17,331,Memory,form,switch,1000,1000,1,same,7744,1,1
17,332,Memory,form,repeat,1000,1000,1,same,1010,1,1
17,333,Memory,form,repeat,50,1000,20,different,606,1,1
17,334,Memory,form,repeat,50,50,1,same,1271,1,1
17,335,Memory,colour,switch,1000,50,0.05,different,4298,1,1
17,336,Memory,form,switch,1000,1000,1,same,712,1,1
17,337,Memory,form,repeat,50,1000,20,different,582,1,1
17,338,Memory,colour,switch,1000,50,0.05,different,1080,1,1
17,339,Memory,form,switch,1000,1000,1,same,1485,1,1
17,340,Memory,colour,switch,50,1000,20,different,1370,1,1
17,341,Memory,colour,repeat,50,50,1,same,1412,1,1
17,342,Memory,form,switch,50,50,1,same,1347,1,1
17,343,Memory,form,repeat,1000,50,0.05,different,1441,1,1
17,344,Memory,form,repeat,1000,1000,1,same,645,1,1
17,345,Memory,colour,switch,1000,1000,1,same,1321,1,1
17,346,Memory,colour,repeat,1000,1000,1,same,1717,1,1
17,347,Memory,colour,repeat,1000,1000,1,same,1266,1,1
17,348,Memory,form,switch,50,1000,20,different,1142,1,1
17,349,Memory,colour,switch,50,50,1,same,2351,1,1
17,350,Memory,colour,repeat,50,50,1,same,1105,1,1
17,351,Memory,colour,repeat,50,50,1,same,765,1,1
17,352,Memory,colour,repeat,50,50,1,same,967,1,1
17,353,Memory,form,switch,1000,50,0.05,different,1179,1,1
17,354,Memory,form,repeat,1000,1000,1,same,1568,0,1
17,355,Memory,form,repeat,50,1000,20,different,1982,1,0
17,356,Memory,colour,switch,50,50,1,same,1165,1,1
17,357,Memory,form,switch,1000,50,0.05,different,1481,1,1
17,358,Memory,form,repeat,1000,1000,1,same,1442,0,1
17,359,Memory,colour,switch,50,1000,20,different,3150,1,0
17,360,Memory,colour,repeat,1000,50,0.05,different,2603,1,1
17,361,Memory,colour,repeat,1000,1000,1,same,10551,1,1
17,362,Memory,colour,repeat,1000,1000,1,same,964,1,1
17,363,Memory,colour,repeat,1000,1000,1,same,2653,1,1
17,364,Memory,colour,repeat,1000,1000,1,same,1042,1,1
17,365,Memory,form,switch,50,1000,20,different,1278,1,1
17,366,Memory,colour,switch,50,50,1,same,1567,1,1
17,367,Memory,colour,repeat,1000,50,0.05,different,1670,1,1
17,368,Memory,form,switch,50,1000,20,different,1099,1,1
17,369,Memory,form,repeat,50,50,1,same,680,1,1
17,370,Memory,form,repeat,1000,50,0.05,different,1241,1,1
17,371,Memory,colour,switch,50,1000,20,different,1067,1,1
17,372,Memory,form,switch,50,50,1,same,1597,1,1
17,373,Memory,form,repeat,50,50,1,same,1882,1,1
17,374,Memory,form,repeat,50,50,1,same,840,1,1
17,375,Memory,colour,switch,1000,50,0.05,different,1383,1,1
17,376,Memory,form,switch,1000,1000,1,same,1179,1,1
17,377,Memory,form,repeat,50,1000,20,different,1187,1,1
17,378,Memory,colour,switch,1000,50,0.05,different,1307,1,1
17,379,Memory,colour,repeat,50,1000,20,different,1136,1,1
17,380,Memory,colour,repeat,50,50,1,same,772,1,1
17,381,Memory,colour,repeat,50,50,1,same,871,1,1
17,382,Memory,form,switch,1000,50,0.05,different,1238,1,1
17,383,Memory,form,repeat,50,1000,20,different,609,1,1
17,384,Memory,colour,switch,1000,50,0.05,different,1182,1,1
18,1,Memory,colour,null,1000,1000,1,same,2050,1,1
18,2,Memory,form,switch,50,1000,20,different,2541,1,1
18,3,Memory,form,repeat,1000,50,0.05,different,1486,1,1
18,4,Memory,colour,switch,50,1000,20,different,2573,1,1
18,5,Memory,colour,repeat,1000,50,0.05,different,3110,1,1
18,6,Memory,colour,repeat,1000,1000,1,same,1249,1,1
18,7,Memory,colour,repeat,1000,1000,1,same,474,1,1
18,8,Memory,form,switch,50,1000,20,different,1921,1,1
18,9,Memory,colour,switch,1000,50,0.05,different,1245,1,1
18,10,Memory,colour,repeat,50,1000,20,different,703,0,1
18,11,Memory,colour,repeat,1000,50,0.05,different,769,1,0
18,12,Memory,colour,repeat,50,1000,20,different,1199,1,1
18,13,Memory,colour,repeat,1000,50,0.05,different,731,0,1
18,14,Memory,colour,repeat,50,1000,20,different,490,1,0
18,15,Memory,form,switch,1000,50,0.05,different,2108,1,1
18,16,Memory,colour,switch,1000,1000,1,same,842,0,1
18,17,Memory,colour,repeat,1000,1000,1,same,3920,1,0
18,18,Memory,form,switch,1000,1000,1,same,2204,1,1
18,19,Memory,form,repeat,50,1000,20,different,853,1,1
18,20,Memory,colour,switch,1000,50,0.05,different,3736,1,1
18,21,Memory,colour,repeat,1000,1000,1,same,610,1,1
18,22,Memory,form,switch,50,1000,20,different,2793,1,1
18,23,Memory,colour,switch,50,50,1,same,1003,1,1
18,24,Memory,colour,repeat,50,50,1,same,2218,1,1
18,25,Memory,form,switch,1000,50,0.05,different,3082,0,1
18,26,Memory,form,repeat,1000,1000,1,same,4697,1,0
18,27,Memory,form,repeat,50,1000,20,different,409,1,1
18,28,Memory,colour,switch,50,50,1,same,1270,1,1
18,29,Memory,form,switch,50,50,1,same,1392,1,1
18,30,Memory,form,repeat,50,50,1,same,975,1,1
18,31,Memory,form,repeat,50,50,1,same,637,1,1
18,32,Memory,form,repeat,1000,50,0.05,different,482,1,1
18,33,Memory,colour,switch,50,1000,20,different,1045,1,1
18,34,Memory,form,switch,50,50,1,same,667,1,1
18,35,Memory,form,repeat,1000,50,0.05,different,1413,1,1
18,36,Memory,form,repeat,1000,1000,1,same,1550,1,1
18,37,Memory,form,repeat,50,1000,20,different,1958,1,1
18,38,Memory,colour,switch,50,50,1,same,1044,1,1
18,39,Memory,form,switch,1000,50,0.05,different,1747,1,1
18,40,Memory,colour,switch,50,1000,20,different,1133,1,1
18,41,Memory,form,switch,50,50,1,same,1185,1,1
18,42,Memory,colour,switch,1000,50,0.05,different,1428,1,1
18,43,Memory,form,switch,50,1000,20,different,1058,1,1
18,44,Memory,form,repeat,1000,50,0.05,different,1349,1,1
18,45,Memory,colour,switch,50,1000,20,different,1315,1,1
18,46,Memory,form,switch,1000,50,0.05,different,837,0,1
18,47,Memory,form,repeat,50,1000,20,different,3375,1,0
18,48,Memory,colour,switch,1000,50,0.05,different,1135,1,1
18,49,Memory,colour,repeat,50,1000,20,different,781,1,1
18,50,Memory,colour,repeat,1000,50,0.05,different,1000,1,1
18,51,Memory,form,switch,50,1000,20,different,1098,1,1
18,52,Memory,colour,switch,50,50,1,same,796,0,1
18,53,Memory,form,switch,50,50,1,same,2029,0,0
18,54,Memory,form,repeat,1000,50,0.05,different,755,0,0
18,55,Memory,colour,switch,50,1000,20,different,1102,1,0
18,56,Memory,colour,repeat,1000,50,0.05,different,610,1,1
18,57,Memory,form,switch,1000,1000,1,same,929,1,1
18,58,Memory,colour,switch,50,1000,20,different,682,1,1
18,59,Memory,colour,repeat,1000,50,0.05,different,2143,1,1
18,60,Memory,form,switch,50,1000,20,different,1629,1,1
18,61,Memory,form,repeat,1000,50,0.05,different,3361,1,1
18,62,Memory,colour,switch,50,1000,20,different,1004,1,1
18,63,Memory,form,switch,1000,50,0.05,different,1847,1,1
18,64,Memory,form,repeat,50,1000,20,different,797,1,1
18,65,Memory,colour,null,1000,50,0.05,different,1510,1,1
18,66,Memory,colour,repeat,1000,1000,1,same,550,1,1
18,67,Memory,form,switch,1000,1000,1,same,902,1,1
18,68,Memory,colour,switch,1000,1000,1,same,553,0,1
18,69,Memory,form,switch,1000,1000,1,same,1283,1,0
18,70,Memory,colour,switch,1000,1000,1,same,953,1,1
18,71,Memory,colour,repeat,50,1000,20,different,803,1,1
18,72,Memory,colour,repeat,1000,50,0.05,different,971,1,1
18,73,Memory,form,switch,50,1000,20,different,1505,1,1
18,74,Memory,colour,switch,50,50,1,same,875,1,1
18,75,Memory,colour,repeat,50,50,1,same,700,1,1
18,76,Memory,colour,repeat,1000,50,0.05,different,431,1,1
18,77,Memory,form,switch,1000,1000,1,same,878,0,1
18,78,Memory,form,repeat,1000,1000,1,same,891,1,0
18,79,Memory,form,repeat,1000,1000,1,same,384,1,1
18,80,Memory,form,repeat,50,1000,20,different,640,1,1
18,81,Memory,colour,switch,1000,50,0.05,different,1129,1,1
18,82,Memory,form,switch,1000,1000,1,same,1352,1,1
18,83,Memory,colour,switch,50,1000,20,different,2701,1,1
18,84,Memory,form,switch,50,50,1,same,1383,1,1
18,85,Memory,form,repeat,1000,50,0.05,different,1760,1,1
18,86,Memory,form,repeat,50,1000,20,different,952,1,1
18,87,Memory,colour,switch,50,50,1,same,1009,1,1
18,88,Memory,colour,repeat,50,50,1,same,1201,1,1
18,89,Memory,form,switch,50,50,1,same,1189,1,1
18,90,Memory,form,repeat,1000,50,0.05,different,855,1,1
18,91,Memory,form,repeat,1000,1000,1,same,786,1,1
18,92,Memory,form,repeat,50,1000,20,different,675,1,1
18,93,Memory,colour,switch,50,50,1,same,735,1,1
18,94,Memory,form,switch,50,50,1,same,588,1,1
18,95,Memory,colour,switch,50,50,1,same,740,1,1
18,96,Memory,colour,repeat,1000,50,0.05,different,1297,0,1
18,97,Memory,form,switch,50,1000,20,different,1523,1,0
18,98,Memory,colour,switch,50,50,1,same,1040,1,1
18,99,Memory,colour,repeat,1000,50,0.05,different,522,1,1
18,100,Memory,colour,repeat,50,1000,20,different,843,0,1
18,101,Memory,colour,repeat,1000,50,0.05,different,643,1,0
18,102,Memory,form,switch,50,1000,20,different,1299,1,1
18,103,Memory,colour,switch,50,50,1,same,1288,1,1
18,104,Memory,form,switch,1000,50,0.05,different,886,0,1
18,105,Memory,colour,switch,1000,1000,1,same,1157,1,0
18,106,Memory,form,switch,50,1000,20,different,1614,1,1
18,107,Memory,form,repeat,50,50,1,same,791,1,1
18,108,Memory,form,repeat,1000,50,0.05,different,1711,1,1
18,109,Memory,form,repeat,1000,1000,1,same,753,1,1
18,110,Memory,form,repeat,50,1000,20,different,1082,1,1
18,111,Memory,colour,switch,1000,50,0.05,different,1215,1,1
18,112,Memory,colour,repeat,50,1000,20,different,366,1,1
18,113,Memory,form,switch,50,50,1,same,1188,1,1
18,114,Memory,form,repeat,1000,50,0.05,different,1283,1,1
18,115,Memory,form,repeat,50,1000,20,different,443,1,1
18,116,Memory,form,repeat,1000,50,0.05,different,563,1,1
18,117,Memory,form,repeat,50,1000,20,different,844,1,1
18,118,Memory,colour,switch,1000,50,0.05,different,406,0,1
18,119,Memory,colour,repeat,1000,1000,1,same,430,1,0
18,120,Memory,form,switch,50,1000,20,different,739,1,1
18,121,Memory,form,repeat,50,50,1,same,1648,1,1
18,122,Memory,colour,switch,50,50,1,same,1110,1,1
18,123,Memory,colour,repeat,1000,50,0.05,different,1343,1,1
18,124,Memory,colour,repeat,1000,1000,1,same,532,1,1
18,125,Memory,colour,repeat,50,1000,20,different,535,1,1
18,126,Memory,form,switch,1000,50,0.05,different,2688,1,1
18,127,Memory,colour,switch,50,1000,20,different,878,1,1
18,128,Memory,colour,repeat,50,50,1,same,686,1,1
18,129,Memory,form,null,50,50,1,same,738,1,1
18,130,Memory,colour,switch,1000,50,0.05,different,434,1,1
18,131,Memory,colour,repeat,1000,1000,1,same,426,1,1
18,132,Memory,colour,repeat,1000,1000,1,same,1245,1,1
18,133,Memory,form,switch,50,1000,20,different,1141,1,1
18,134,Memory,form,repeat,50,50,1,same,541,1,1
18,135,Memory,colour,switch,50,50,1,same,685,1,1
18,136,Memory,form,switch,1000,50,0.05,different,910,0,1
18,137,Memory,colour,switch,1000,1000,1,same,1548,1,0
18,138,Memory,colour,repeat,50,1000,20,different,505,1,1
18,139,Memory,form,switch,50,50,1,same,909,1,1
18,140,Memory,colour,switch,1000,50,0.05,different,630,1,1
18,141,Memory,form,switch,1000,1000,1,same,1758,1,1
18,142,Memory,form,repeat,1000,1000,1,same,422,1,1
18,143,Memory,form,repeat,50,1000,20,different,811,1,1
18,144,Memory,form,repeat,50,50,1,same,601,1,1
18,145,Memory,form,repeat,50,50,1,same,500,1,1
18,146,Memory,form,repeat,1000,50,0.05,different,683,0,1
18,147,Memory,form,repeat,1000,1000,1,same,1028,1,0
18,148,Memory,colour,switch,1000,1000,1,same,440,1,1
18,149,Memory,form,switch,1000,1000,1,same,598,1,1
18,150,Memory,colour,switch,1000,1000,1,same,1621,1,1
18,151,Memory,colour,repeat,50,1000,20,different,581,1,1
18,152,Memory,form,switch,1000,50,0.05,different,1929,1,1
18,153,Memory,colour,switch,50,1000,20,different,1091,1,1
18,154,Memory,colour,repeat,1000,50,0.05,different,693,1,1
18,155,Memory,colour,repeat,50,1000,20,different,574,1,1
18,156,Memory,form,switch,1000,50,0.05,different,1182,1,1
18,157,Memory,colour,switch,1000,1000,1,same,908,0,1
18,158,Memory,form,switch,50,1000,20,different,1650,1,0
18,159,Memory,colour,switch,50,50,1,same,1047,1,1
18,160,Memory,colour,repeat,1000,50,0.05,different,638,1,1
18,161,Memory,form,switch,1000,1000,1,same,3314,1,1
18,162,Memory,form,repeat,1000,1000,1,same,1506,1,1
18,163,Memory,colour,switch,50,1000,20,different,746,1,1
18,164,Memory,form,switch,50,50,1,same,750,1,1
18,165,Memory,colour,switch,50,50,1,same,927,0,1
18,166,Memory,colour,repeat,50,50,1,same,2150,1,0
18,167,Memory,form,switch,1000,50,0.05,different,1063,1,1
18,168,Memory,colour,switch,50,1000,20,different,1833,1,1
18,169,Memory,colour,repeat,50,50,1,same,2635,1,1
18,170,Memory,colour,repeat,1000,50,0.05,different,454,1,1
18,171,Memory,form,switch,50,1000,20,different,2629,1,1
18,172,Memory,form,repeat,50,50,1,same,995,1,1
18,173,Memory,colour,switch,50,50,1,same,993,1,1
18,174,Memory,form,switch,50,50,1,same,1016,0,1
18,175,Memory,form,repeat,1000,50,0.05,different,756,1,0
18,176,Memory,colour,switch,1000,1000,1,same,1114,1,1
18,177,Memory,form,switch,50,1000,20,different,1520,1,1
18,178,Memory,colour,switch,1000,50,0.05,different,1987,0,1
18,179,Memory,form,switch,50,1000,20,different,3094,1,0
18,180,Memory,form,repeat,1000,50,0.05,different,2000,0,1
18,181,Memory,form,repeat,1000,1000,1,same,984,1,0
18,182,Memory,colour,switch,1000,1000,1,same,1339,0,1
18,183,Memory,colour,repeat,50,1000,20,different,1034,1,0
18,184,Memory,form,switch,1000,50,0.05,different,1513,1,1
18,185,Memory,colour,switch,50,1000,20,different,1020,1,1
18,186,Memory,colour,repeat,50,50,1,same,537,1,1
18,187,Memory,colour,repeat,50,50,1,same,431,1,1
18,188,Memory,form,switch,50,50,1,same,821,1,1
18,189,Memory,form,repeat,50,50,1,same,840,1,1
18,190,Memory,colour,switch,1000,50,0.05,different,1294,1,1
18,191,Memory,form,switch,50,1000,20,different,1822,1,1
18,192,Memory,colour,switch,1000,50,0.05,different,2759,1,1
18,193,Memory,form,null,1000,1000,1,same,1440,1,1
18,194,Memory,colour,switch,1000,1000,1,same,922,1,1
18,195,Memory,colour,repeat,1000,1000,1,same,1292,0,1
18,196,Memory,form,switch,1000,1000,1,same,1404,1,0
18,197,Memory,form,repeat,50,1000,20,different,1430,1,1
18,198,Memory,form,repeat,1000,50,0.05,different,1689,0,1
18,199,Memory,colour,switch,1000,1000,1,same,1853,0,0
18,200,Memory,colour,repeat,50,1000,20,different,820,1,0
18,201,Memory,colour,repeat,50,50,1,same,454,1,1
18,202,Memory,form,switch,1000,50,0.05,different,592,1,1
18,203,Memory,colour,switch,1000,1000,1,same,830,1,1
18,204,Memory,form,switch,50,1000,20,different,1028,1,1
18,205,Memory,form,repeat,50,50,1,same,1775,1,1
18,206,Memory,form,repeat,1000,50,0.05,different,545,1,1
18,207,Memory,form,repeat,50,1000,20,different,459,1,1
18,208,Memory,colour,switch,1000,50,0.05,different,1239,1,1
18,209,Memory,form,switch,50,1000,20,different,1460,1,1
18,210,Memory,form,repeat,1000,50,0.05,different,684,1,1
18,211,Memory,form,repeat,1000,1000,1,same,668,1,1
18,212,Memory,colour,switch,1000,1000,1,same,2330,1,1
18,213,Memory,colour,repeat,1000,1000,1,same,797,1,1
18,214,Memory,form,switch,50,1000,20,different,1473,0,1
18,215,Memory,colour,switch,50,50,1,same,1508,1,0
18,216,Memory,colour,repeat,1000,50,0.05,different,1212,1,1
18,217,Memory,colour,repeat,1000,1000,1,same,471,1,1
18,218,Memory,colour,repeat,1000,1000,1,same,368,1,1
18,219,Memory,colour,repeat,50,1000,20,different,553,1,1
18,220,Memory,form,switch,1000,50,0.05,different,1117,1,1
18,221,Memory,form,repeat,1000,1000,1,same,1125,1,1
18,222,Memory,colour,switch,50,1000,20,different,918,1,1
18,223,Memory,colour,repeat,50,50,1,same,1119,0,1
18,224,Memory,colour,repeat,50,50,1,same,2177,1,0
18,225,Memory,colour,repeat,1000,50,0.05,different,483,1,1
18,226,Memory,form,switch,50,1000,20,different,1164,1,1
18,227,Memory,colour,switch,1000,50,0.05,different,783,1,1
18,228,Memory,form,switch,50,1000,20,different,1851,1,1
18,229,Memory,colour,switch,50,50,1,same,936,1,1
18,230,Memory,form,switch,50,50,1,same,900,0,1
18,231,Memory,form,repeat,50,50,1,same,1478,1,0
18,232,Memory,colour,switch,50,50,1,same,1175,1,1
18,233,Memory,form,switch,1000,50,0.05,different,2448,0,1
18,234,Memory,form,repeat,1000,1000,1,same,1370,1,0
18,235,Memory,form,repeat,1000,1000,1,same,1088,1,1
18,236,Memory,colour,switch,50,1000,20,different,913,1,1
18,237,Memory,form,switch,50,50,1,same,2031,1,1
18,238,Memory,colour,switch,1000,50,0.05,different,1882,0,1
18,239,Memory,colour,repeat,50,1000,20,different,1256,1,0
18,240,Memory,form,switch,50,50,1,same,1173,1,1
18,241,Memory,form,repeat,1000,50,0.05,different,1439,1,1
18,242,Memory,colour,switch,50,1000,20,different,1524,1,1
18,243,Memory,colour,repeat,1000,50,0.05,different,584,1,1
18,244,Memory,form,switch,50,1000,20,different,1404,1,1
18,245,Memory,colour,switch,50,50,1,same,1273,1,1
18,246,Memory,colour,repeat,1000,50,0.05,different,760,1,1
18,247,Memory,colour,repeat,1000,1000,1,same,672,1,1
18,248,Memory,form,switch,50,1000,20,different,1301,1,1
18,249,Memory,form,repeat,50,50,1,same,706,1,1
18,250,Memory,form,repeat,50,50,1,same,532,1,1
18,251,Memory,colour,switch,50,50,1,same,855,1,1
18,252,Memory,colour,repeat,50,50,1,same,657,1,1
18,253,Memory,form,switch,1000,50,0.05,different,886,1,1
18,254,Memory,colour,switch,50,1000,20,different,609,1,1
18,255,Memory,form,switch,1000,50,0.05,different,710,1,1
18,256,Memory,form,repeat,50,1000,20,different,845,1,1
18,257,Memory,form,null,1000,50,0.05,different,1077,1,1
18,258,Memory,form,repeat,1000,1000,1,same,634,1,1
18,259,Memory,form,repeat,50,1000,20,different,599,1,1
18,260,Memory,colour,switch,50,50,1,same,1318,1,1
18,261,Memory,form,switch,50,50,1,same,1301,1,1
18,262,Memory,colour,switch,50,50,1,same,2306,0,1
18,263,Memory,colour,repeat,50,50,1,same,1039,1,0
18,264,Memory,form,switch,1000,50,0.05,different,1523,1,1
18,265,Memory,colour,switch,50,1000,20,different,1233,1,1
18,266,Memory,form,switch,50,50,1,same,1936,1,1
18,267,Memory,form,repeat,50,50,1,same,2823,1,1
18,268,Memory,colour,switch,50,50,1,same,2867,1,1
18,269,Memory,form,switch,1000,50,0.05,different,872,0,1
18,270,Memory,colour,switch,1000,1000,1,same,2286,0,0
18,271,Memory,colour,repeat,50,1000,20,different,1290,1,0
18,272,Memory,colour,repeat,1000,50,0.05,different,416,1,1
18,273,Memory,form,switch,1000,1000,1,same,1362,1,1
18,274,Memory,form,repeat,1000,1000,1,same,1944,1,1
18,275,Memory,form,repeat,1000,1000,1,same,699,1,1
18,276,Memory,form,repeat,50,1000,20,different,438,1,1
18,277,Memory,colour,switch,50,50,1,same,919,1,1
18,278,Memory,form,switch,1000,50,0.05,different,300,0,1
18,279,Memory,colour,switch,1000,1000,1,same,1084,1,0
18,280,Memory,colour,repeat,50,1000,20,different,576,1,1
18,281,Memory,colour,repeat,50,50,1,same,590,1,1
18,282,Memory,colour,repeat,50,50,1,same,510,1,1
18,283,Memory,form,switch,1000,50,0.05,different,1077,1,1
18,284,Memory,form,repeat,50,1000,20,different,550,1,1
18,285,Memory,colour,switch,50,50,1,same,754,1,1
18,286,Memory,colour,repeat,50,50,1,same,704,1,1
18,287,Memory,form,switch,50,50,1,same,991,1,1
18,288,Memory,form,repeat,50,50,1,same,601,1,1
18,289,Memory,colour,switch,1000,50,0.05,different,1045,1,1
18,290,Memory,colour,repeat,1000,1000,1,same,477,1,1
18,291,Memory,colour,repeat,50,1000,20,different,533,1,1
18,292,Memory,form,switch,50,50,1,same,776,1,1
18,293,Memory,colour,switch,1000,50,0.05,different,1352,1,1
18,294,Memory,form,switch,1000,1000,1,same,912,0,1
18,295,Memory,form,repeat,1000,1000,1,same,2350,1,0
18,296,Memory,colour,switch,1000,1000,1,same,380,0,1
18,297,Memory,colour,repeat,1000,1000,1,same,2444,1,0
18,298,Memory,form,switch,1000,1000,1,same,1031,1,1
18,299,Memory,colour,switch,1000,1000,1,same,1052,1,1
18,300,Memory,colour,repeat,1000,1000,1,same,450,1,1
18,301,Memory,colour,repeat,50,1000,20,different,551,1,1
18,302,Memory,colour,repeat,1000,50,0.05,different,370,0,1
18,303,Memory,form,switch,50,1000,20,different,950,0,0
18,304,Memory,colour,switch,1000,50,0.05,different,1166,1,0
18,305,Memory,form,switch,50,1000,20,different,1141,1,1
18,306,Memory,form,repeat,50,50,1,same,628,1,1
18,307,Memory,form,repeat,1000,50,0.05,different,624,1,1
18,308,Memory,colour,switch,1000,1000,1,same,764,1,1
18,309,Memory,colour,repeat,50,1000,20,different,570,1,1
18,310,Memory,colour,repeat,1000,50,0.05,different,629,1,1
18,311,Memory,colour,repeat,1000,1000,1,same,1036,1,1
18,312,Memory,form,switch,50,1000,20,different,1143,1,1
18,313,Memory,form,repeat,50,50,1,same,616,1,1
18,314,Memory,form,repeat,50,50,1,same,519,1,1
18,315,Memory,colour,switch,1000,50,0.05,different,1842,1,1
18,316,Memory,form,switch,50,1000,20,different,1372,1,1
18,317,Memory,colour,switch,50,50,1,same,1546,1,1
