"condition","subject","trial","sequence","stimRep","accuracy","rt"
"match",1,1,"CBA","no",1,851
"match",1,2,"CBA","no",1,702
"match",1,3,"ABA","no",1,1062
"match",1,4,"CBA","no",1,880
"match",1,5,"ABA","no",1,1063
"match",1,6,"CBA","yes",1,781
"match",1,7,"CBA","no",1,954
"match",1,8,"CBA","yes",1,1535
"match",1,9,"ABA","no",1,951
"match",1,10,"ABA","no",1,748
"match",1,11,"CBA","yes",1,762
"match",1,12,"ABA","yes",1,1833
"match",1,13,"ABA","yes",1,1039
"match",1,14,"ABA","no",1,848
"match",1,15,"ABA","yes",1,637
"match",1,16,"CBA","no",1,642
"match",1,17,"CBA","no",1,696
"match",1,18,"ABA","no",1,689
"match",1,19,"CBA","yes",1,640
"match",1,20,"ABA","no",1,1240
"match",1,21,"ABA","no",1,994
"match",1,22,"CBA","no",1,719
"match",1,23,"ABA","no",1,628
"match",1,24,"CBA","no",1,743
"match",1,25,"ABA","no",1,705
"match",1,26,"ABA","no",1,648
"match",1,27,"CBA","no",1,827
"match",1,28,"CBA","no",1,648
"match",1,29,"ABA","no",1,1378
"match",1,30,"CBA","yes",1,1999
"match",1,31,"ABA","no",1,839
"match",1,32,"CBA","yes",1,704
"match",1,33,"CBA","no",1,2062
"match",1,34,"ABA","yes",1,1074
"match",1,35,"ABA","no",1,687
"match",1,36,"CBA","yes",1,1007
"match",1,37,"ABA","no",1,655
"match",1,38,"ABA","no",1,1215
"match",1,39,"CBA","no",1,709
"match",1,40,"CBA","no",1,1587
"match",1,41,"CBA","no",1,2248
"match",1,42,"CBA","no",1,656
"match",1,43,"ABA","no",1,752
"match",1,44,"CBA","no",1,812
"match",1,45,"CBA","yes",1,1886
"match",1,46,"CBA","no",1,2892
"match",1,47,"ABA","no",1,527
"match",1,48,"CBA","yes",1,484
"match",1,49,"ABA","no",1,673
"match",1,50,"CBA","no",1,1112
"match",1,51,"ABA","no",1,677
"match",1,52,"ABA","yes",1,718
"match",1,53,"ABA","no",1,578
"match",1,54,"ABA","no",1,1717
"match",1,55,"ABA","yes",1,2476
"match",1,56,"ABA","no",1,970
"match",1,57,"CBA","yes",1,793
"match",1,58,"ABA","yes",1,690
"match",1,59,"ABA","no",1,655
"match",1,60,"CBA","no",1,590
"match",1,61,"CBA","no",1,701
"match",1,62,"ABA","no",1,947
"match",1,63,"ABA","no",1,3283
"match",1,64,"ABA","yes",1,648
"match",1,65,"ABA","no",1,986
"match",1,66,"ABA","no",1,797
"match",1,67,"ABA","yes",1,1293
"match",1,68,"ABA","no",1,681
"match",1,69,"ABA","yes",1,727
"match",1,70,"ABA","yes",1,1009
"match",1,71,"ABA","yes",1,589
"match",1,72,"CBA","no",1,775
"match",1,73,"ABA","no",1,853
"match",1,74,"ABA","no",1,1739
"match",1,75,"ABA","no",1,969
"match",1,76,"ABA","no",1,790
"match",1,77,"CBA","no",1,665
"match",1,78,"ABA","yes",1,2273
"match",1,79,"ABA","no",1,544
"match",1,80,"CBA","no",1,1080
"match",1,81,"ABA","no",1,682
"match",1,82,"CBA","no",1,733
"match",1,83,"CBA","no",1,756
"match",1,84,"ABA","no",1,996
"match",1,85,"ABA","no",1,870
"match",1,86,"ABA","no",1,1576
"match",1,87,"ABA","no",1,1083
"match",1,88,"ABA","no",1,710
"match",1,89,"ABA","no",1,1363
"match",1,90,"CBA","no",1,769
"match",1,91,"CBA","no",1,1341
"match",1,92,"ABA","no",1,2045
"match",1,93,"ABA","no",1,677
"match",1,94,"ABA","no",1,1164
"match",1,95,"CBA","no",1,3816
"match",1,96,"ABA","yes",1,597
"match",1,97,"CBA","no",1,772
"match",1,98,"CBA","no",1,2022
"match",1,99,"ABA","no",1,702
"match",1,100,"ABA","no",1,737
"match",1,101,"CBA","yes",1,634
"match",1,102,"CBA","no",1,770
"match",1,103,"CBA","no",1,985
"match",1,104,"CBA","no",1,584
"match",1,105,"CBA","no",1,6104
"match",1,106,"ABA","yes",1,552
"match",1,107,"CBA","no",1,577
"match",1,108,"ABA","no",1,517
"match",1,109,"CBA","yes",1,634
"match",1,110,"CBA","yes",1,1595
"match",1,111,"CBA","yes",1,590
"match",1,112,"ABA","no",1,873
"match",1,113,"CBA","no",1,729
"match",1,114,"CBA","no",1,979
"match",1,115,"CBA","no",1,1640
"match",1,116,"ABA","no",1,819
"match",1,117,"CBA","no",1,590
"match",1,118,"CBA","no",1,866
"match",1,119,"CBA","yes",1,632
"match",1,120,"ABA","no",1,1595
"match",1,121,"CBA","no",1,522
"match",1,122,"ABA","no",1,970
"match",1,123,"ABA","no",1,584
"match",1,124,"ABA","no",1,902
"match",1,125,"CBA","no",1,538
"match",1,126,"CBA","no",1,856
"match",1,127,"CBA","no",1,1105
"match",1,128,"CBA","no",1,507
"match",1,129,"ABA","no",1,1067
"match",1,130,"CBA","no",1,592
"match",1,131,"ABA","yes",1,676
"match",1,132,"CBA","no",1,485
"match",1,133,"ABA","no",1,1116
"match",1,134,"ABA","yes",1,601
"match",1,135,"CBA","no",1,646
"match",1,136,"ABA","no",1,1044
"match",1,137,"CBA","no",1,794
"match",1,138,"CBA","no",1,838
"match",1,139,"CBA","no",1,1126
"match",1,140,"ABA","yes",1,1473
"match",1,141,"ABA","yes",1,757
"match",1,142,"CBA","no",1,971
"match",1,143,"ABA","yes",1,611
"match",1,144,"ABA","no",1,1155
"match",1,145,"ABA","no",1,641
"match",1,146,"ABA","yes",1,705
"match",1,147,"ABA","no",1,561
"match",1,148,"ABA","no",1,845
"match",1,149,"CBA","no",1,688
"match",1,150,"ABA","no",1,1516
"match",1,151,"CBA","no",1,693
"match",1,152,"ABA","no",1,698
"match",1,153,"CBA","no",1,709
"match",1,154,"CBA","no",1,606
"match",1,155,"ABA","yes",1,899
"match",1,156,"ABA","yes",1,726
"match",1,157,"CBA","no",1,999
"match",1,158,"CBA","no",1,777
"match",1,159,"CBA","no",1,628
"match",1,160,"CBA","no",1,1172
"match",1,161,"ABA","yes",1,1272
"match",1,162,"CBA","no",1,674
"match",1,163,"ABA","no",1,823
"match",1,164,"ABA","no",1,874
"match",1,165,"CBA","no",1,689
"match",1,166,"ABA","no",1,698
"match",1,167,"CBA","no",1,827
"match",1,168,"ABA","yes",1,1627
"match",1,169,"CBA","no",1,592
"match",1,170,"ABA","yes",1,536
"match",1,171,"ABA","no",1,906
"match",1,172,"ABA","no",1,3114
"match",1,173,"CBA","yes",1,844
"match",1,174,"ABA","no",1,588
"match",1,175,"ABA","no",1,802
"match",1,176,"CBA","no",1,1038
"match",1,177,"CBA","no",1,719
"match",1,178,"ABA","no",1,1336
"match",1,179,"ABA","yes",1,479
"match",1,180,"CBA","no",1,491
"match",1,181,"CBA","no",1,1121
"match",1,182,"ABA","yes",1,550
"match",1,183,"CBA","no",1,641
"match",1,184,"ABA","no",1,970
"match",1,185,"CBA","no",1,1529
"match",1,186,"CBA","no",1,1087
"match",1,187,"ABA","yes",1,1079
"match",1,188,"CBA","yes",1,546
"match",1,189,"CBA","no",1,822
"match",1,190,"CBA","yes",1,929
"match",1,191,"ABA","no",1,742
"match",1,192,"ABA","yes",1,744
"match",1,193,"CBA","yes",1,655
"match",1,194,"CBA","yes",1,752
"match",1,195,"CBA","no",1,1289
"match",1,196,"ABA","no",1,751
"match",1,197,"CBA","no",1,1610
"match",1,198,"ABA","no",1,1902
"match",1,199,"ABA","no",1,740
"match",1,200,"CBA","yes",1,788
"match",1,201,"ABA","no",1,483
"match",1,202,"ABA","no",1,857
"match",1,203,"ABA","no",1,581
"match",1,204,"CBA","no",1,1100
"match",1,205,"ABA","no",1,1384
"match",1,206,"ABA","no",1,1071
"match",1,207,"ABA","no",1,657
"match",1,208,"ABA","no",1,670
"match",1,209,"CBA","yes",1,742
"match",1,210,"ABA","no",1,817
"match",1,211,"CBA","yes",1,637
"match",1,212,"CBA","yes",1,911
"match",1,213,"ABA","no",1,1093
"match",1,214,"ABA","no",1,679
"match",1,215,"ABA","no",1,569
"match",1,216,"CBA","no",1,773
"match",1,217,"ABA","yes",1,580
"match",1,218,"ABA","no",1,1009
"match",1,219,"ABA","yes",1,590
"match",1,220,"ABA","no",1,779
"match",1,221,"ABA","no",1,1164
"match",1,222,"ABA","yes",1,707
"match",1,223,"ABA","no",1,647
"match",1,224,"CBA","no",1,1237
"match",1,225,"CBA","yes",1,640
"match",1,226,"ABA","yes",1,668
"match",1,227,"CBA","yes",1,544
"match",1,228,"ABA","no",1,1009
"match",1,229,"CBA","no",1,717
"match",1,230,"CBA","no",1,659
"match",1,231,"ABA","yes",1,1112
"match",1,232,"CBA","no",1,1589
"match",1,233,"CBA","no",1,943
"match",1,234,"CBA","no",1,1153
"match",1,235,"CBA","no",1,2223
"match",1,236,"CBA","no",1,618
"match",1,237,"ABA","no",1,762
"match",1,238,"ABA","yes",1,537
"match",1,239,"CBA","no",1,783
"match",1,240,"ABA","yes",1,571
"match",1,241,"ABA","yes",1,721
"match",1,242,"CBA","yes",1,542
"match",1,243,"ABA","no",1,668
"match",1,244,"CBA","yes",1,532
"match",1,245,"ABA","yes",1,739
"match",1,246,"CBA","no",1,1004
"match",1,247,"ABA","no",1,565
"match",1,248,"CBA","no",1,815
"match",1,249,"ABA","no",1,1084
"match",1,250,"ABA","no",1,472
"match",1,251,"ABA","no",1,984
"match",1,252,"ABA","no",1,742
"match",1,253,"ABA","yes",1,693
"match",1,254,"ABA","no",1,976
"match",1,255,"ABA","no",1,943
"match",1,256,"ABA","no",1,549
"match",1,257,"CBA","no",1,843
"match",1,258,"CBA","no",1,974
"match",1,259,"CBA","no",1,694
"match",1,260,"CBA","no",1,781
"match",1,261,"CBA","no",1,1900
"match",1,262,"CBA","no",1,2652
"match",1,263,"CBA","no",1,1721
"match",1,264,"CBA","yes",1,440
"match",1,265,"ABA","no",1,746
"match",1,266,"CBA","no",1,1274
"match",1,267,"CBA","no",1,2021
"match",1,268,"ABA","no",1,568
"match",1,269,"ABA","no",1,703
"match",1,270,"CBA","no",1,641
"match",1,271,"CBA","yes",1,573
"match",1,272,"CBA","no",1,999
"match",1,273,"CBA","no",1,4496
"match",1,274,"ABA","no",1,547
"match",1,275,"ABA","no",1,737
"match",1,276,"ABA","yes",1,1139
"match",1,277,"ABA","no",1,891
"match",1,278,"CBA","yes",1,739
"match",1,279,"CBA","yes",1,3085
"match",1,280,"ABA","no",1,955
"match",1,281,"CBA","yes",1,870
"match",1,282,"ABA","no",1,589
"match",1,283,"ABA","yes",1,656
"match",1,284,"ABA","no",1,936
"match",1,285,"CBA","yes",1,731
"match",1,286,"CBA","no",1,701
"match",1,287,"CBA","no",1,1143
"match",1,288,"CBA","no",1,696
"match",1,289,"CBA","no",1,725
"match",1,290,"CBA","yes",1,610
"match",1,291,"CBA","no",1,816
"match",1,292,"CBA","no",1,972
"match",1,293,"CBA","no",1,651
"match",1,294,"ABA","no",1,824
"match",1,295,"ABA","no",1,658
"match",1,296,"ABA","no",1,755
"match",1,297,"CBA","no",1,659
"match",1,298,"ABA","no",1,1967
"match",1,299,"CBA","no",1,619
"match",1,300,"CBA","no",1,700
"match",1,301,"ABA","no",1,1054
"match",1,302,"ABA","no",1,702
"match",1,303,"CBA","no",1,1011
"match",1,304,"CBA","no",0,3899
"match",1,305,"ABA","no",1,1671
"match",1,306,"ABA","no",1,2016
"match",1,307,"ABA","yes",1,658
"match",1,308,"ABA","no",1,628
"match",1,309,"CBA","no",1,570
"match",1,310,"ABA","no",1,651
"match",1,311,"ABA","no",1,878
"match",1,312,"ABA","yes",1,629
"match",1,313,"CBA","no",1,1001
"match",1,314,"CBA","yes",1,665
"match",1,315,"ABA","no",1,5207
"match",1,316,"ABA","no",1,954
"match",1,317,"CBA","no",1,577
"match",1,318,"CBA","no",1,839
"match",1,319,"ABA","no",1,539
"match",1,320,"ABA","no",1,1042
"match",1,321,"CBA","no",1,667
"match",1,322,"CBA","yes",1,597
"match",1,323,"CBA","no",1,671
"match",1,324,"ABA","yes",1,812
"match",1,325,"ABA","no",0,687
"match",1,326,"ABA","no",1,651
"match",1,327,"ABA","no",1,1164
"match",1,328,"ABA","yes",1,555
"match",1,329,"ABA","no",1,1016
"match",1,330,"CBA","yes",1,706
"match",1,331,"CBA","no",1,1839
"match",1,332,"ABA","yes",1,2451
"match",1,333,"ABA","yes",1,781
"match",1,334,"ABA","no",1,582
"match",1,335,"CBA","no",1,680
"match",1,336,"ABA","no",1,814
"match",1,337,"ABA","no",1,1222
"match",1,338,"CBA","no",1,627
"match",1,339,"CBA","no",1,668
"match",1,340,"CBA","no",1,841
"match",1,341,"CBA","yes",1,556
"match",1,342,"ABA","no",1,1144
"match",1,343,"CBA","yes",1,662
"match",1,344,"ABA","no",1,599
"match",1,345,"CBA","no",1,534
"match",1,346,"ABA","no",1,645
"match",1,347,"CBA","no",1,998
"match",1,348,"CBA","yes",1,597
"match",1,349,"ABA","no",1,1077
"match",1,350,"CBA","no",1,671
"match",1,351,"CBA","no",1,592
"match",1,352,"ABA","yes",1,631
"match",1,353,"CBA","no",0,2079
"match",1,354,"ABA","no",1,992
"match",1,355,"ABA","yes",1,551
"match",1,356,"ABA","no",1,977
"match",1,357,"CBA","no",1,500
"match",1,358,"CBA","no",1,575
"match",1,359,"ABA","no",1,889
"match",1,360,"ABA","no",1,998
"match",2,1,"CBA","no",1,3163
"match",2,2,"ABA","no",1,1469
"match",2,3,"CBA","no",1,995
"match",2,4,"CBA","yes",1,857
"match",2,5,"ABA","no",1,2168
"match",2,6,"ABA","no",1,837
"match",2,7,"CBA","no",1,933
"match",2,8,"CBA","no",1,1073
"match",2,9,"ABA","no",1,1785
"match",2,10,"ABA","no",1,1008
"match",2,11,"CBA","no",1,707
"match",2,12,"CBA","no",1,920
"match",2,13,"CBA","no",1,983
"match",2,14,"CBA","yes",1,1209
"match",2,15,"ABA","no",1,978
"match",2,16,"CBA","yes",1,1307
"match",2,17,"ABA","no",1,720
"match",2,18,"ABA","no",1,1675
"match",2,19,"CBA","no",1,1084
"match",2,20,"ABA","no",1,1713
"match",2,21,"ABA","no",1,1077
"match",2,22,"CBA","no",1,639
"match",2,23,"ABA","no",1,3952
"match",2,24,"CBA","yes",1,2514
"match",2,25,"ABA","no",1,1555
"match",2,26,"CBA","no",1,1205
"match",2,27,"CBA","yes",1,1012
"match",2,28,"CBA","no",1,2565
"match",2,29,"ABA","no",1,2555
"match",2,30,"CBA","no",1,2816
"match",2,31,"ABA","no",1,1323
"match",2,32,"CBA","no",1,857
"match",2,33,"CBA","no",1,732
"match",2,34,"ABA","no",1,1312
"match",2,35,"ABA","no",1,1398
"match",2,36,"CBA","no",1,2192
"match",2,37,"CBA","no",1,1344
"match",2,38,"CBA","yes",1,1034
"match",2,39,"ABA","yes",1,1246
"match",2,40,"CBA","no",1,1520
"match",2,41,"CBA","no",1,968
"match",2,42,"ABA","no",1,1698
"match",2,43,"CBA","no",1,1527
"match",2,44,"ABA","no",1,1837
"match",2,45,"CBA","no",1,683
"match",2,46,"CBA","no",1,1334
"match",2,47,"CBA","no",1,3051
"match",2,48,"CBA","no",1,1405
"match",2,49,"ABA","no",0,2146
"match",2,50,"ABA","yes",1,2156
"match",2,51,"ABA","no",1,1299
"match",2,52,"CBA","no",1,613
"match",2,53,"CBA","no",1,1261
"match",2,54,"CBA","no",1,702
"match",2,55,"CBA","yes",1,638
"match",2,56,"ABA","no",1,1251
"match",2,57,"CBA","no",1,1082
"match",2,58,"ABA","no",1,1878
"match",2,59,"ABA","no",1,1212
"match",2,60,"ABA","no",1,1048
"match",2,61,"ABA","no",1,1973
"match",2,62,"CBA","no",1,891
"match",2,63,"CBA","yes",1,1322
"match",2,64,"CBA","no",1,1022
"match",2,65,"ABA","yes",1,2299
"match",2,66,"ABA","no",1,1036
"match",2,67,"CBA","no",1,2414
"match",2,68,"CBA","yes",0,1890
"match",2,69,"ABA","no",1,1933
"match",2,70,"CBA","no",1,1474
"match",2,71,"CBA","no",1,1519
"match",2,72,"CBA","no",1,2393
"match",2,73,"CBA","no",1,2987
"match",2,74,"ABA","yes",1,676
"match",2,75,"CBA","yes",1,966
"match",2,76,"ABA","no",1,1313
"match",2,77,"CBA","no",1,2372
"match",2,78,"ABA","yes",1,1777
"match",2,79,"CBA","no",1,1795
"match",2,80,"ABA","no",1,1370
"match",2,81,"ABA","no",1,1316
"match",2,82,"ABA","no",1,900
"match",2,83,"ABA","no",1,1084
"match",2,84,"CBA","yes",1,661
"match",2,85,"ABA","yes",0,760
"match",2,86,"CBA","no",1,1171
"match",2,87,"ABA","no",1,2467
"match",2,88,"ABA","no",1,3199
"match",2,89,"CBA","no",1,4831
"match",2,90,"CBA","no",1,2323
"match",2,91,"CBA","no",1,1289
"match",2,92,"ABA","no",1,840
"match",2,93,"ABA","yes",1,983
"match",2,94,"ABA","no",0,1435
"match",2,95,"CBA","yes",1,2327
"match",2,96,"ABA","yes",1,1161
"match",2,97,"ABA","no",1,1072
"match",2,98,"ABA","no",1,842
"match",2,99,"ABA","no",1,901
"match",2,100,"CBA","no",1,1096
"match",2,101,"CBA","no",1,1752
"match",2,102,"CBA","no",1,1009
"match",2,103,"CBA","yes",1,1134
"match",2,104,"CBA","no",1,1603
"match",2,105,"CBA","no",1,991
"match",2,106,"ABA","no",0,975
"match",2,107,"CBA","yes",1,1334
"match",2,108,"ABA","no",1,1262
"match",2,109,"ABA","no",1,639
"match",2,110,"CBA","yes",1,1139
"match",2,111,"CBA","no",1,2008
"match",2,112,"CBA","no",1,2612
"match",2,113,"CBA","no",1,4022
"match",2,114,"CBA","no",1,774
"match",2,115,"CBA","no",1,678
"match",2,116,"ABA","no",1,1221
"match",2,117,"ABA","no",1,1136
"match",2,118,"ABA","no",1,1684
"match",2,119,"ABA","no",1,711
"match",2,120,"ABA","no",1,1339
"match",2,121,"ABA","no",1,801
"match",2,122,"ABA","no",1,1099
"match",2,123,"CBA","no",1,789
"match",2,124,"CBA","no",1,855
"match",2,125,"ABA","yes",1,1228
"match",2,126,"CBA","no",1,1523
"match",2,127,"ABA","yes",1,933
"match",2,128,"CBA","no",1,852
"match",2,129,"CBA","no",1,2297
"match",2,130,"CBA","no",1,601
"match",2,131,"ABA","no",1,1190
"match",2,132,"CBA","yes",1,849
"match",2,133,"ABA","no",1,2151
"match",2,134,"CBA","no",1,749
"match",2,135,"ABA","no",1,1274
"match",2,136,"ABA","no",1,1138
"match",2,137,"ABA","no",1,1029
"match",2,138,"ABA","yes",1,706
"match",2,139,"ABA","yes",1,1594
"match",2,140,"CBA","no",1,807
"match",2,141,"ABA","no",1,2952
"match",2,142,"ABA","no",1,877
"match",2,143,"ABA","yes",1,892
"match",2,144,"ABA","no",1,783
"match",2,145,"ABA","no",1,2782
"match",2,146,"ABA","no",1,617
"match",2,147,"ABA","no",1,1422
"match",2,148,"CBA","no",1,1329
"match",2,149,"ABA","no",1,2547
"match",2,150,"ABA","no",1,632
"match",2,151,"CBA","yes",1,906
"match",2,152,"ABA","no",1,2068
"match",2,153,"ABA","no",1,810
"match",2,154,"ABA","yes",1,1315
"match",2,155,"CBA","no",1,936
"match",2,156,"ABA","no",1,2437
"match",2,157,"ABA","yes",1,953
"match",2,158,"CBA","no",1,871
"match",2,159,"ABA","yes",1,1069
"match",2,160,"CBA","yes",1,2076
"match",2,161,"ABA","no",1,1675
"match",2,162,"CBA","no",1,566
"match",2,163,"CBA","no",1,914
"match",2,164,"CBA","yes",1,1497
"match",2,165,"ABA","no",1,1037
"match",2,166,"CBA","yes",1,1157
"match",2,167,"CBA","no",1,1940
"match",2,168,"ABA","no",1,1080
"match",2,169,"ABA","no",1,1650
"match",2,170,"CBA","no",1,723
"match",2,171,"ABA","yes",1,1138
"match",2,172,"CBA","no",1,645
"match",2,173,"CBA","no",1,1248
"match",2,174,"ABA","no",1,1639
"match",2,175,"ABA","no",1,1090
"match",2,176,"CBA","no",1,1628
"match",2,177,"CBA","no",1,1839
"match",2,178,"ABA","no",1,1517
"match",2,179,"CBA","no",1,2216
"match",2,180,"ABA","no",1,1018
"match",2,181,"CBA","no",1,1436
"match",2,182,"ABA","no",1,1062
"match",2,183,"ABA","no",1,862
"match",2,184,"CBA","no",1,819
"match",2,185,"ABA","yes",1,868
"match",2,186,"ABA","yes",1,1543
"match",2,187,"CBA","no",1,1026
"match",2,188,"ABA","yes",1,2220
"match",2,189,"ABA","no",1,1372
"match",2,190,"ABA","no",1,531
"match",2,191,"CBA","no",1,509
"match",2,192,"ABA","no",1,868
"match",2,193,"ABA","no",1,1377
"match",2,194,"CBA","no",1,2452
"match",2,195,"ABA","yes",1,975
"match",2,196,"CBA","no",1,698
"match",2,197,"ABA","no",1,1059
"match",2,198,"ABA","no",1,715
"match",2,199,"CBA","no",1,2073
"match",2,200,"ABA","no",1,558
"match",2,201,"ABA","yes",0,798
"match",2,202,"ABA","no",1,1442
"match",2,203,"ABA","no",1,1155
"match",2,204,"CBA","yes",1,759
"match",2,205,"CBA","no",1,894
"match",2,206,"CBA","no",1,5212
"match",2,207,"CBA","no",1,3118
"match",2,208,"CBA","no",1,919
"match",2,209,"CBA","yes",1,1402
"match",2,210,"ABA","yes",1,2155
"match",2,211,"ABA","no",1,2131
"match",2,212,"CBA","no",1,665
"match",2,213,"CBA","no",1,721
"match",2,214,"ABA","yes",1,931
"match",2,215,"CBA","yes",1,1888
"match",2,216,"CBA","no",1,1552
"match",2,217,"ABA","no",0,5061
"match",2,218,"ABA","no",1,1617
"match",2,219,"CBA","no",1,582
"match",2,220,"ABA","no",1,1559
"match",2,221,"ABA","no",1,931
"match",2,222,"ABA","no",1,1498
"match",2,223,"CBA","no",1,818
"match",2,224,"ABA","no",1,1649
"match",2,225,"CBA","no",1,2884
"match",2,226,"CBA","yes",1,2079
"match",2,227,"ABA","no",1,562
"match",2,228,"ABA","yes",0,802
"match",2,229,"CBA","no",1,1215
"match",2,230,"CBA","no",1,4286
"match",2,231,"ABA","yes",1,807
"match",2,232,"CBA","no",1,2195
"match",2,233,"ABA","no",1,1274
"match",2,234,"ABA","no",1,993
"match",2,235,"CBA","yes",1,1767
"match",2,236,"ABA","no",1,1119
"match",2,237,"ABA","no",1,977
"match",2,238,"ABA","yes",1,1819
"match",2,239,"ABA","no",1,1257
"match",2,240,"ABA","no",1,1243
"match",2,241,"CBA","no",1,780
"match",2,242,"ABA","no",1,759
"match",2,243,"ABA","no",1,644
"match",2,244,"ABA","yes",1,1070
"match",2,245,"ABA","no",1,602
"match",2,246,"CBA","no",1,740
"match",2,247,"ABA","yes",1,918
"match",2,248,"ABA","yes",1,991
"match",2,249,"ABA","no",1,1261
"match",2,250,"ABA","no",1,1054
"match",2,251,"CBA","yes",1,1906
"match",2,252,"ABA","no",1,1236
"match",2,253,"ABA","no",1,1314
"match",2,254,"CBA","yes",1,642
"match",2,255,"ABA","no",1,1260
"match",2,256,"ABA","no",1,2955
"match",2,257,"CBA","no",1,964
"match",2,258,"ABA","no",1,1492
"match",2,259,"CBA","no",1,940
"match",2,260,"CBA","no",1,2640
"match",2,261,"CBA","no",1,2509
"match",2,262,"CBA","no",1,1506
"match",2,263,"CBA","no",1,698
"match",2,264,"ABA","no",1,2749
"match",2,265,"ABA","no",1,2228
"match",2,266,"CBA","yes",1,3408
"match",2,267,"CBA","no",0,1286
"match",2,268,"CBA","yes",1,725
"match",2,269,"ABA","yes",1,972
"match",2,270,"ABA","no",1,734
"match",2,271,"ABA","yes",1,1070
"match",2,272,"CBA","no",1,921
"match",2,273,"CBA","no",1,2366
"match",2,274,"ABA","no",1,1144
"match",2,275,"CBA","no",1,1639
"match",2,276,"ABA","no",1,2339
"match",2,277,"CBA","yes",1,1708
"match",2,278,"CBA","no",1,7303
"match",2,279,"CBA","yes",1,1142
"match",2,280,"CBA","yes",1,1517
"match",2,281,"CBA","yes",1,3106
"match",2,282,"CBA","yes",1,711
"match",2,283,"ABA","no",1,2003
"match",2,284,"CBA","no",1,1033
"match",2,285,"ABA","yes",1,1605
"match",2,286,"CBA","no",1,1327
"match",2,287,"ABA","yes",1,1380
"match",2,288,"ABA","yes",1,594
"match",2,289,"ABA","no",0,849
"match",2,290,"ABA","no",1,2337
"match",2,291,"ABA","no",1,733
"match",2,292,"CBA","no",1,893
"match",2,293,"CBA","no",1,1096
"match",2,294,"CBA","yes",1,794
"match",2,295,"ABA","no",1,1941
"match",2,296,"ABA","no",1,769
"match",2,297,"ABA","yes",1,1298
"match",2,298,"CBA","no",1,1381
"match",2,299,"CBA","no",1,2244
"match",2,300,"CBA","no",1,534
"match",2,301,"CBA","no",1,933
"match",2,302,"CBA","no",1,1164
"match",2,303,"CBA","yes",0,1279
"match",2,304,"CBA","yes",1,1280
"match",2,305,"ABA","no",1,1427
"match",2,306,"CBA","yes",1,1161
"match",2,307,"ABA","no",1,767
"match",2,308,"CBA","no",1,582
"match",2,309,"ABA","no",1,1230
"match",2,310,"CBA","no",1,977
"match",2,311,"ABA","no",1,772
"match",2,312,"CBA","no",1,756
"match",2,313,"CBA","no",1,1212
"match",2,314,"ABA","yes",1,910
"match",2,315,"ABA","no",1,3107
"match",2,316,"CBA","yes",1,681
"match",2,317,"CBA","yes",1,873
"match",2,318,"CBA","yes",1,1116
"match",2,319,"ABA","no",1,815
"match",2,320,"ABA","no",1,1836
"match",2,321,"CBA","no",1,597
"match",2,322,"ABA","no",1,872
"match",2,323,"CBA","yes",1,624
"match",2,324,"CBA","no",1,1302
"match",2,325,"ABA","yes",1,1202
"match",2,326,"ABA","no",1,1010
"match",2,327,"CBA","no",1,600
"match",2,328,"ABA","no",1,1751
"match",2,329,"ABA","no",1,2073
"match",2,330,"ABA","no",1,1563
"match",2,331,"ABA","no",1,680
"match",2,332,"ABA","no",1,1327
"match",2,333,"CBA","no",1,579
"match",2,334,"ABA","yes",1,1134
"match",2,335,"ABA","no",1,1420
"match",2,336,"CBA","no",1,1263
"match",2,337,"CBA","yes",1,2311
"match",2,338,"CBA","no",1,538
"match",2,339,"CBA","no",1,784
"match",2,340,"ABA","yes",1,675
"match",2,341,"CBA","no",1,681
"match",2,342,"CBA","no",1,1829
"match",2,343,"CBA","no",1,1523
"match",2,344,"ABA","no",1,971
"match",2,345,"CBA","no",1,2361
"match",2,346,"ABA","yes",1,1929
"match",2,347,"ABA","yes",1,1147
"match",2,348,"CBA","no",1,652
"match",2,349,"ABA","no",1,526
"match",2,350,"CBA","no",1,720
"match",2,351,"ABA","yes",1,688
"match",2,352,"CBA","no",1,728
"match",2,353,"ABA","no",1,573
"match",2,354,"ABA","no",1,1078
"match",2,355,"CBA","no",1,810
"match",2,356,"CBA","no",1,1590
"match",2,357,"CBA","no",1,711
"match",2,358,"CBA","no",1,900
"match",2,359,"CBA","no",1,1408
"match",2,360,"ABA","no",1,798
"match",3,1,"CBA","no",1,1441
"match",3,2,"ABA","no",1,662
"match",3,3,"CBA","no",1,627
"match",3,4,"CBA","no",1,666
"match",3,5,"CBA","no",1,828
"match",3,6,"CBA","yes",1,934
"match",3,7,"ABA","yes",0,727
"match",3,8,"CBA","no",1,1280
"match",3,9,"CBA","yes",1,570
"match",3,10,"CBA","yes",1,755
"match",3,11,"CBA","no",1,1260
"match",3,12,"CBA","no",1,1594
"match",3,13,"CBA","no",1,1960
"match",3,14,"CBA","yes",0,2167
"match",3,15,"ABA","no",1,732
"match",3,16,"ABA","no",1,2894
"match",3,17,"ABA","no",1,793
"match",3,18,"ABA","no",1,739
"match",3,19,"ABA","yes",1,702
"match",3,20,"CBA","yes",1,534
"match",3,21,"CBA","no",1,1089
"match",3,22,"ABA","no",1,986
"match",3,23,"ABA","yes",1,2246
"match",3,24,"CBA","no",1,2016
"match",3,25,"ABA","no",1,3373
"match",3,26,"ABA","no",1,1267
"match",3,27,"CBA","no",1,1818
"match",3,28,"ABA","no",1,2779
"match",3,29,"ABA","no",1,677
"match",3,30,"CBA","no",1,664
"match",3,31,"CBA","no",0,1579
"match",3,32,"ABA","no",1,1186
"match",3,33,"ABA","no",1,777
"match",3,34,"CBA","no",0,732
"match",3,35,"ABA","yes",1,2137
"match",3,36,"ABA","no",1,1185
"match",3,37,"ABA","no",1,842
"match",3,38,"ABA","no",1,778
"match",3,39,"CBA","no",1,783
"match",3,40,"CBA","yes",0,2142
"match",3,41,"CBA","no",1,1802
"match",3,42,"ABA","no",1,1546
"match",3,43,"CBA","no",1,817
"match",3,44,"CBA","no",1,1570
"match",3,45,"CBA","no",1,1817
"match",3,46,"CBA","no",1,904
"match",3,47,"CBA","no",0,2509
"match",3,48,"ABA","no",0,1655
"match",3,49,"ABA","no",1,989
"match",3,50,"CBA","no",1,837
"match",3,51,"CBA","yes",1,1252
"match",3,52,"CBA","no",0,2039
"match",3,53,"ABA","no",1,3487
"match",3,54,"ABA","no",1,2796
"match",3,55,"ABA","no",1,1278
"match",3,56,"CBA","no",1,641
"match",3,57,"ABA","no",1,1885
"match",3,58,"CBA","yes",1,550
"match",3,59,"CBA","no",1,767
"match",3,60,"ABA","no",1,1173
"match",3,61,"CBA","yes",1,886
"match",3,62,"ABA","no",1,859
"match",3,63,"ABA","no",1,997
"match",3,64,"ABA","no",1,634
"match",3,65,"ABA","no",1,1216
"match",3,66,"ABA","no",1,722
"match",3,67,"CBA","no",1,1080
"match",3,68,"CBA","no",1,1238
"match",3,69,"CBA","yes",1,962
"match",3,70,"CBA","no",1,824
"match",3,71,"ABA","no",1,807
"match",3,72,"CBA","no",1,1278
"match",3,73,"ABA","no",1,1584
"match",3,74,"ABA","yes",1,1059
"match",3,75,"ABA","yes",1,3688
"match",3,76,"ABA","yes",1,1018
"match",3,77,"ABA","no",1,1761
"match",3,78,"ABA","yes",1,1730
"match",3,79,"CBA","yes",1,678
"match",3,80,"ABA","no",1,1133
"match",3,81,"CBA","no",1,735
"match",3,82,"CBA","no",1,685
"match",3,83,"ABA","yes",1,947
"match",3,84,"CBA","no",1,658
"match",3,85,"CBA","no",1,795
"match",3,86,"ABA","no",1,812
"match",3,87,"ABA","no",0,638
"match",3,88,"CBA","no",0,2066
"match",3,89,"CBA","yes",1,1115
"match",3,90,"CBA","yes",1,1185
"match",3,91,"ABA","no",1,756
"match",3,92,"ABA","no",0,661
"match",3,93,"ABA","no",1,761
"match",3,94,"CBA","no",1,1276
"match",3,95,"ABA","no",1,1065
"match",3,96,"ABA","no",1,957
"match",3,97,"CBA","no",1,681
"match",3,98,"ABA","no",1,1527
"match",3,99,"ABA","no",1,1860
"match",3,100,"ABA","yes",1,1440
"match",3,101,"CBA","no",1,999
"match",3,102,"CBA","no",1,1608
"match",3,103,"ABA","no",1,975
"match",3,104,"ABA","no",0,2106
"match",3,105,"CBA","no",1,2204
"match",3,106,"CBA","no",0,2977
"match",3,107,"CBA","yes",1,2798
"match",3,108,"CBA","no",1,2275
"match",3,109,"CBA","yes",0,1294
"match",3,110,"CBA","no",1,2750
"match",3,111,"CBA","no",1,1157
"match",3,112,"ABA","no",1,998
"match",3,113,"CBA","no",1,681
"match",3,114,"ABA","no",1,703
"match",3,115,"CBA","no",1,890
"match",3,116,"CBA","no",1,969
"match",3,117,"CBA","no",1,692
"match",3,118,"ABA","no",1,1239
"match",3,119,"ABA","yes",1,1378
"match",3,120,"ABA","yes",0,2280
"match",3,121,"CBA","no",1,767
"match",3,122,"CBA","no",0,661
"match",3,123,"CBA","no",1,1283
"match",3,124,"CBA","yes",1,2933
"match",3,125,"CBA","yes",1,642
"match",3,126,"CBA","no",1,585
"match",3,127,"ABA","no",1,1196
"match",3,128,"ABA","no",1,1244
"match",3,129,"ABA","no",0,1949
"match",3,130,"CBA","no",1,847
"match",3,131,"ABA","no",1,857
"match",3,132,"CBA","no",1,620
"match",3,133,"ABA","yes",1,918
"match",3,134,"ABA","yes",1,1107
"match",3,135,"ABA","no",1,1988
"match",3,136,"CBA","no",1,877
"match",3,137,"CBA","no",1,2146
"match",3,138,"CBA","no",1,875
"match",3,139,"ABA","no",1,2081
"match",3,140,"CBA","no",1,698
"match",3,141,"ABA","no",1,2757
"match",3,142,"ABA","no",1,1040
"match",3,143,"CBA","no",1,2479
"match",3,144,"CBA","no",1,2736
"match",3,145,"CBA","yes",1,645
"match",3,146,"ABA","no",0,2257
"match",3,147,"ABA","no",1,887
"match",3,148,"ABA","no",0,1830
"match",3,149,"ABA","no",1,2067
"match",3,150,"CBA","no",1,881
"match",3,151,"CBA","no",0,3579
"match",3,152,"CBA","yes",1,2972
"match",3,153,"ABA","yes",1,4266
"match",3,154,"ABA","no",1,620
"match",3,155,"CBA","no",1,834
"match",3,156,"ABA","no",1,1528
"match",3,157,"ABA","no",1,819
"match",3,158,"CBA","no",1,2836
"match",3,159,"ABA","no",1,1350
"match",3,160,"CBA","no",1,2073
"match",3,161,"CBA","yes",1,781
"match",3,162,"ABA","no",1,670
"match",3,163,"ABA","no",1,1407
"match",3,164,"CBA","yes",1,651
"match",3,165,"ABA","no",1,631
"match",3,166,"CBA","no",1,1244
"match",3,167,"ABA","no",1,2260
"match",3,168,"CBA","yes",0,3178
"match",3,169,"CBA","no",1,7621
"match",3,170,"ABA","no",1,762
"match",3,171,"ABA","no",1,866
"match",3,172,"ABA","no",1,1211
"match",3,173,"ABA","yes",1,694
"match",3,174,"CBA","no",1,710
"match",3,175,"CBA","no",1,987
"match",3,176,"ABA","yes",0,982
"match",3,177,"CBA","no",1,1574
"match",3,178,"ABA","no",1,1516
"match",3,179,"ABA","no",1,869
"match",3,180,"CBA","yes",1,602
"match",3,181,"CBA","yes",1,1060
"match",3,182,"ABA","yes",1,2033
"match",3,183,"ABA","no",1,1121
"match",3,184,"CBA","yes",1,581
"match",3,185,"ABA","no",1,937
"match",3,186,"ABA","no",1,1166
"match",3,187,"CBA","no",1,667
"match",3,188,"CBA","no",1,832
"match",3,189,"ABA","no",1,649
"match",3,190,"ABA","no",1,713
"match",3,191,"ABA","no",0,1513
"match",3,192,"ABA","no",1,2447
"match",3,193,"ABA","no",1,1776
"match",3,194,"ABA","no",1,2113
"match",3,195,"ABA","no",1,3779
"match",3,196,"CBA","no",1,616
"match",3,197,"ABA","yes",1,618
"match",3,198,"ABA","no",1,2257
"match",3,199,"ABA","no",1,723
"match",3,200,"CBA","yes",1,859
"match",3,201,"ABA","no",1,1346
"match",3,202,"ABA","no",1,1961
"match",3,203,"CBA","no",1,1435
"match",3,204,"CBA","yes",1,632
"match",3,205,"CBA","no",1,1247
"match",3,206,"ABA","no",0,917
"match",3,207,"ABA","no",1,1049
"match",3,208,"CBA","no",1,635
"match",3,209,"CBA","no",1,609
"match",3,210,"CBA","no",1,920
"match",3,211,"CBA","no",1,858
"match",3,212,"ABA","no",1,2026
"match",3,213,"CBA","no",1,1599
"match",3,214,"CBA","yes",1,2310
"match",3,215,"ABA","yes",1,1124
"match",3,216,"CBA","no",1,8064
"match",3,217,"ABA","no",1,817
"match",3,218,"ABA","yes",1,1053
"match",3,219,"ABA","no",1,1258
"match",3,220,"CBA","yes",1,1068
"match",3,221,"CBA","no",1,735
"match",3,222,"CBA","no",1,2068
"match",3,223,"CBA","no",1,3117
"match",3,224,"ABA","no",1,738
"match",3,225,"CBA","yes",1,1376
"match",3,226,"CBA","no",1,2534
"match",3,227,"ABA","no",1,1585
"match",3,228,"ABA","no",1,3201
"match",3,229,"CBA","no",1,987
"match",3,230,"ABA","yes",0,1446
"match",3,231,"ABA","no",1,2492
"match",3,232,"ABA","yes",1,3240
"match",3,233,"ABA","no",1,629
"match",3,234,"CBA","no",1,742
"match",3,235,"ABA","no",1,858
"match",3,236,"ABA","no",1,936
"match",3,237,"CBA","no",1,757
"match",3,238,"CBA","yes",1,874
"match",3,239,"CBA","yes",1,1212
"match",3,240,"ABA","no",1,580
"match",3,241,"CBA","no",0,2142
"match",3,242,"CBA","no",1,2243
"match",3,243,"CBA","no",1,639
"match",3,244,"CBA","no",1,674
"match",3,245,"CBA","no",1,1169
"match",3,246,"ABA","no",1,1759
"match",3,247,"CBA","no",1,1742
"match",3,248,"CBA","no",1,1324
"match",3,249,"CBA","no",1,1019
"match",3,250,"CBA","no",1,1469
"match",3,251,"CBA","no",0,2578
"match",3,252,"ABA","no",1,822
"match",3,253,"CBA","no",1,1448
"match",3,254,"CBA","yes",1,1733
"match",3,255,"ABA","no",1,2896
"match",3,256,"ABA","no",1,1754
"match",3,257,"ABA","no",1,902
"match",3,258,"CBA","no",1,1242
"match",3,259,"CBA","no",1,2875
"match",3,260,"ABA","no",1,1439
"match",3,261,"ABA","no",1,3581
"match",3,262,"CBA","yes",1,605
"match",3,263,"CBA","no",1,991
"match",3,264,"ABA","no",1,1015
"match",3,265,"CBA","no",1,851
"match",3,266,"CBA","no",1,876
"match",3,267,"CBA","no",1,715
"match",3,268,"ABA","yes",1,624
"match",3,269,"CBA","no",1,739
"match",3,270,"ABA","no",1,1834
"match",3,271,"ABA","no",1,1413
"match",3,272,"ABA","no",1,753
"match",3,273,"CBA","no",1,1220
"match",3,274,"ABA","no",1,1404
"match",3,275,"CBA","no",1,726
"match",3,276,"CBA","no",1,986
"match",3,277,"CBA","no",1,845
"match",3,278,"CBA","yes",1,1379
"match",3,279,"CBA","yes",1,1252
"match",3,280,"CBA","no",1,720
"match",3,281,"CBA","yes",1,1054
"match",3,282,"CBA","no",1,784
"match",3,283,"ABA","no",1,1417
"match",3,284,"CBA","yes",1,1412
"match",3,285,"CBA","yes",1,657
"match",3,286,"CBA","yes",1,987
"match",3,287,"ABA","no",1,1178
"match",3,288,"ABA","no",1,1395
"match",3,289,"CBA","no",1,2600
"match",3,290,"ABA","no",1,925
"match",3,291,"ABA","no",1,639
"match",3,292,"ABA","no",1,1131
"match",3,293,"CBA","no",1,1522
"match",3,294,"ABA","yes",1,1012
"match",3,295,"CBA","no",1,1134
"match",3,296,"CBA","no",1,1801
"match",3,297,"CBA","no",1,2405
"match",3,298,"ABA","no",1,655
"match",3,299,"CBA","no",1,609
"match",3,300,"ABA","no",1,1184
"match",3,301,"ABA","no",1,1511
"match",3,302,"ABA","no",1,1079
"match",3,303,"ABA","no",1,1166
"match",3,304,"CBA","no",1,1866
"match",3,305,"ABA","no",1,2744
"match",3,306,"CBA","no",1,1494
"match",3,307,"ABA","no",1,965
"match",3,308,"CBA","no",1,1818
"match",3,309,"ABA","no",1,598
"match",3,310,"ABA","no",1,1444
"match",3,311,"CBA","no",1,723
"match",3,312,"CBA","yes",1,1861
"match",3,313,"ABA","no",1,2071
"match",3,314,"CBA","no",1,2356
"match",3,315,"CBA","no",1,3140
"match",3,316,"ABA","no",1,692
"match",3,317,"ABA","no",1,1819
"match",3,318,"ABA","no",1,1474
"match",3,319,"CBA","no",1,2722
"match",3,320,"ABA","yes",1,1930
"match",3,321,"ABA","no",1,708
"match",3,322,"CBA","no",1,782
"match",3,323,"ABA","yes",1,2455
"match",3,324,"ABA","no",1,1222
"match",3,325,"ABA","no",1,924
"match",3,326,"CBA","yes",1,977
"match",3,327,"CBA","yes",1,1418
"match",3,328,"CBA","no",1,1284
"match",3,329,"CBA","yes",1,1020
"match",3,330,"ABA","no",1,1074
"match",3,331,"CBA","no",1,1097
"match",3,332,"CBA","no",1,948
"match",3,333,"CBA","no",0,1244
"match",3,334,"ABA","no",1,2136
"match",3,335,"CBA","no",1,622
"match",3,336,"ABA","no",1,728
"match",3,337,"CBA","no",1,654
"match",3,338,"CBA","no",0,862
"match",3,339,"ABA","no",1,3261
"match",3,340,"CBA","no",1,1248
"match",3,341,"CBA","no",1,2454
"match",3,342,"CBA","no",1,1049
"match",3,343,"ABA","no",1,998
"match",3,344,"ABA","no",1,1056
"match",3,345,"CBA","no",1,1633
"match",3,346,"ABA","no",1,1466
"match",3,347,"ABA","no",1,2709
"match",3,348,"CBA","yes",0,1668
"match",3,349,"ABA","yes",1,2224
"match",3,350,"CBA","no",1,2881
"match",3,351,"ABA","no",1,6114
"match",3,352,"ABA","no",1,622
"match",3,353,"CBA","no",1,839
"match",3,354,"ABA","no",1,2744
"match",3,355,"CBA","yes",0,4362
"match",3,356,"ABA","no",1,3498
"match",3,357,"CBA","no",1,3688
"match",3,358,"ABA","no",1,1004
"match",3,359,"ABA","no",1,641
"match",3,360,"CBA","no",1,592
"match",4,1,"CBA","no",1,1797
"match",4,2,"CBA","no",1,1360
"match",4,3,"CBA","yes",1,1524
"match",4,4,"CBA","no",1,2573
"match",4,5,"CBA","yes",1,863
"match",4,6,"CBA","no",1,1033
"match",4,7,"ABA","no",1,1811
"match",4,8,"CBA","yes",1,2184
"match",4,9,"CBA","no",1,2807
"match",4,10,"CBA","no",1,889
"match",4,11,"CBA","no",1,1588
"match",4,12,"CBA","no",1,1075
"match",4,13,"CBA","yes",1,915
"match",4,14,"ABA","yes",0,3638
"match",4,15,"CBA","no",1,2636
"match",4,16,"CBA","no",1,967
"match",4,17,"CBA","no",1,675
"match",4,18,"CBA","no",1,5003
"match",4,19,"CBA","yes",1,1292
"match",4,20,"CBA","no",1,1887
"match",4,21,"CBA","yes",1,3048
"match",4,22,"CBA","no",1,1160
"match",4,23,"ABA","no",1,3027
"match",4,24,"ABA","no",1,2889
"match",4,25,"ABA","yes",1,776
"match",4,26,"ABA","no",1,1305
"match",4,27,"CBA","no",1,3441
"match",4,28,"CBA","no",1,1149
"match",4,29,"ABA","no",1,5473
"match",4,30,"ABA","no",1,1379
"match",4,31,"ABA","no",1,1444
"match",4,32,"CBA","no",1,1219
"match",4,33,"ABA","yes",1,1066
"match",4,34,"ABA","yes",1,1395
"match",4,35,"ABA","no",1,884
"match",4,36,"ABA","no",1,4883
"match",4,37,"ABA","yes",1,5346
"match",4,38,"ABA","yes",1,881
"match",4,39,"CBA","yes",1,2811
"match",4,40,"CBA","no",1,1361
"match",4,41,"ABA","no",1,983
"match",4,42,"CBA","yes",1,3328
"match",4,43,"ABA","no",1,2221
"match",4,44,"ABA","yes",1,3665
"match",4,45,"CBA","no",0,3544
"match",4,46,"CBA","no",1,1595
"match",4,47,"CBA","no",1,1307
"match",4,48,"CBA","yes",1,2370
"match",4,49,"ABA","no",1,2814
"match",4,50,"ABA","no",1,2167
"match",4,51,"ABA","no",1,2432
"match",4,52,"CBA","no",1,954
"match",4,53,"ABA","no",1,1078
"match",4,54,"CBA","no",1,3054
"match",4,55,"CBA","no",1,7486
"match",4,56,"ABA","no",1,6005
"match",4,57,"ABA","no",1,1759
"match",4,58,"ABA","no",0,7262
"match",4,59,"ABA","no",1,1689
"match",4,60,"ABA","no",1,5117
"match",4,61,"ABA","no",1,1073
"match",4,62,"CBA","no",1,1267
"match",4,63,"ABA","no",1,1534
"match",4,64,"ABA","no",1,3137
"match",4,65,"CBA","no",1,1051
"match",4,66,"ABA","no",1,2057
"match",4,67,"ABA","yes",1,1132
"match",4,68,"ABA","no",1,1496
"match",4,69,"ABA","no",1,1260
"match",4,70,"CBA","yes",1,2207
"match",4,71,"CBA","no",1,1387
"match",4,72,"CBA","no",1,2655
"match",4,73,"ABA","no",1,1238
"match",4,74,"ABA","no",1,1125
"match",4,75,"ABA","no",1,1085
"match",4,76,"CBA","yes",1,615
"match",4,77,"ABA","no",1,3425
"match",4,78,"CBA","yes",1,1894
"match",4,79,"CBA","no",1,830
"match",4,80,"ABA","no",1,1586
"match",4,81,"ABA","no",1,1341
"match",4,82,"CBA","no",1,6795
"match",4,83,"ABA","yes",1,1819
"match",4,84,"CBA","no",1,1519
"match",4,85,"ABA","no",1,689
"match",4,86,"CBA","no",1,4616
"match",4,87,"ABA","yes",1,2830
"match",4,88,"ABA","no",1,1203
"match",4,89,"ABA","yes",1,965
"match",4,90,"ABA","no",1,1990
"match",4,91,"CBA","no",1,3283
"match",4,92,"CBA","no",1,1053
"match",4,93,"CBA","no",1,1379
"match",4,94,"ABA","yes",1,908
"match",4,95,"CBA","no",1,1954
"match",4,96,"ABA","no",1,1055
"match",4,97,"ABA","yes",0,1002
"match",4,98,"CBA","no",1,2423
"match",4,99,"CBA","no",1,1223
"match",4,100,"ABA","no",1,893
"match",4,101,"CBA","no",1,1432
"match",4,102,"CBA","no",1,1635
"match",4,103,"ABA","no",1,2908
"match",4,104,"ABA","no",1,964
"match",4,105,"ABA","no",1,2699
"match",4,106,"ABA","no",1,1555
"match",4,107,"CBA","no",1,1281
"match",4,108,"ABA","yes",1,924
"match",4,109,"CBA","no",1,748
"match",4,110,"CBA","yes",1,1662
"match",4,111,"ABA","yes",1,1224
"match",4,112,"CBA","no",1,659
"match",4,113,"ABA","no",1,2533
"match",4,114,"CBA","no",1,1319
"match",4,115,"CBA","yes",1,679
"match",4,116,"CBA","no",0,1092
"match",4,117,"CBA","yes",1,3664
"match",4,118,"ABA","no",1,1122
"match",4,119,"ABA","no",1,2342
"match",4,120,"CBA","no",1,869
"match",4,121,"CBA","no",1,1495
"match",4,122,"CBA","no",1,1708
"match",4,123,"CBA","no",1,1187
"match",4,124,"ABA","yes",1,5027
"match",4,125,"ABA","yes",1,2007
"match",4,126,"ABA","no",1,845
"match",4,127,"ABA","yes",1,669
"match",4,128,"CBA","yes",1,1100
"match",4,129,"ABA","no",1,1929
"match",4,130,"ABA","yes",1,2176
"match",4,131,"ABA","no",1,1950
"match",4,132,"CBA","no",1,1218
"match",4,133,"CBA","no",1,4341
"match",4,134,"ABA","yes",1,6331
"match",4,135,"CBA","no",1,1772
"match",4,136,"ABA","no",1,1440
"match",4,137,"ABA","no",1,1454
"match",4,138,"ABA","no",1,3838
"match",4,139,"ABA","yes",1,905
"match",4,140,"ABA","yes",1,1579
"match",4,141,"CBA","no",1,3965
"match",4,142,"CBA","yes",1,1251
"match",4,143,"ABA","no",1,2336
"match",4,144,"ABA","no",1,852
"match",4,145,"ABA","no",1,2866
"match",4,146,"ABA","no",1,639
"match",4,147,"CBA","no",1,2656
"match",4,148,"ABA","no",1,538
"match",4,149,"ABA","no",1,777
"match",4,150,"ABA","no",1,639
"match",4,151,"CBA","no",1,1163
"match",4,152,"CBA","yes",1,2228
"match",4,153,"ABA","yes",1,2078
"match",4,154,"ABA","no",1,955
"match",4,155,"ABA","no",1,1259
"match",4,156,"CBA","yes",1,574
"match",4,157,"CBA","no",1,2376
"match",4,158,"CBA","yes",1,1327
"match",4,159,"CBA","no",1,850
"match",4,160,"ABA","yes",1,1796
"match",4,161,"CBA","yes",1,2605
"match",4,162,"ABA","no",1,4338
"match",4,163,"CBA","no",1,509
"match",4,164,"ABA","yes",1,721
"match",4,165,"ABA","no",1,650
"match",4,166,"CBA","no",1,1468
"match",4,167,"ABA","yes",1,621
"match",4,168,"CBA","no",1,2568
"match",4,169,"CBA","no",1,1517
"match",4,170,"CBA","no",1,625
"match",4,171,"CBA","no",1,967
"match",4,172,"CBA","no",1,911
"match",4,173,"CBA","yes",1,470
"match",4,174,"CBA","yes",0,1189
"match",4,175,"CBA","no",1,4612
"match",4,176,"ABA","no",1,2250
"match",4,177,"ABA","no",1,2525
"match",4,178,"CBA","no",1,8277
"match",4,179,"ABA","yes",1,5169
"match",4,180,"ABA","no",1,798
"match",4,181,"ABA","no",1,866
"match",4,182,"CBA","no",1,1411
"match",4,183,"CBA","yes",1,548
"match",4,184,"CBA","yes",1,1054
"match",4,185,"CBA","no",1,1276
"match",4,186,"CBA","no",1,608
"match",4,187,"CBA","no",1,1332
"match",4,188,"CBA","no",1,934
"match",4,189,"CBA","no",1,855
"match",4,190,"CBA","no",1,1333
"match",4,191,"CBA","no",1,1658
"match",4,192,"CBA","no",1,631
"match",4,193,"ABA","no",1,3301
"match",4,194,"CBA","no",1,5562
"match",4,195,"ABA","no",1,1005
"match",4,196,"CBA","yes",1,585
"match",4,197,"ABA","yes",1,2744
"match",4,198,"CBA","no",1,1076
"match",4,199,"ABA","no",1,2132
"match",4,200,"CBA","no",1,1104
"match",4,201,"CBA","yes",1,6257
"match",4,202,"CBA","no",1,9108
"match",4,203,"CBA","no",1,562
"match",4,204,"CBA","no",1,989
"match",4,205,"ABA","yes",1,1121
"match",4,206,"CBA","no",1,3398
"match",4,207,"ABA","no",1,638
"match",4,208,"CBA","no",1,8739
"match",4,209,"ABA","no",1,591
"match",4,210,"CBA","yes",1,1395
"match",4,211,"CBA","yes",1,1183
"match",4,212,"CBA","no",1,675
"match",4,213,"ABA","no",1,1993
"match",4,214,"CBA","yes",1,780
"match",4,215,"ABA","no",1,2480
"match",4,216,"ABA","no",1,863
"match",4,217,"ABA","no",1,2102
"match",4,218,"ABA","yes",1,3161
"match",4,219,"CBA","no",1,638
"match",4,220,"CBA","no",0,1194
"match",4,221,"CBA","no",1,5192
"match",4,222,"ABA","no",1,665
"match",4,223,"ABA","no",1,1653
"match",4,224,"ABA","no",1,733
"match",4,225,"ABA","no",1,1207
"match",4,226,"ABA","no",1,686
"match",4,227,"CBA","no",1,707
"match",4,228,"CBA","yes",1,1387
"match",4,229,"CBA","yes",1,1438
"match",4,230,"ABA","no",0,1104
"match",4,231,"CBA","no",1,1399
"match",4,232,"CBA","no",1,1127
"match",4,233,"ABA","no",1,1095
"match",4,234,"ABA","no",1,3422
"match",4,235,"ABA","yes",1,792
"match",4,236,"CBA","no",1,835
"match",4,237,"CBA","no",1,2211
"match",4,238,"CBA","no",1,636
"match",4,239,"CBA","no",1,3383
"match",4,240,"CBA","no",1,929
"match",4,241,"CBA","no",1,1797
"match",4,242,"CBA","yes",1,1280
"match",4,243,"CBA","yes",1,1900
"match",4,244,"CBA","no",1,975
"match",4,245,"ABA","no",1,1007
"match",4,246,"CBA","yes",1,2229
"match",4,247,"CBA","no",1,1186
"match",4,248,"ABA","yes",1,914
"match",4,249,"CBA","no",1,1302
"match",4,250,"CBA","no",1,770
"match",4,251,"CBA","no",1,6193
"match",4,252,"CBA","no",1,911
"match",4,253,"ABA","no",1,1043
"match",4,254,"CBA","no",1,832
"match",4,255,"ABA","no",1,711
"match",4,256,"CBA","no",1,1043
"match",4,257,"ABA","no",1,3171
"match",4,258,"ABA","no",1,4455
"match",4,259,"CBA","no",1,587
"match",4,260,"CBA","no",1,995
"match",4,261,"CBA","no",1,1700
"match",4,262,"CBA","no",1,630
"match",4,263,"ABA","no",0,730
"match",4,264,"ABA","no",1,2125
"match",4,265,"ABA","no",1,1034
"match",4,266,"CBA","no",1,1576
"match",4,267,"ABA","no",1,1314
"match",4,268,"ABA","yes",1,1863
"match",4,269,"CBA","no",1,774
"match",4,270,"ABA","no",1,1348
"match",4,271,"CBA","no",1,813
"match",4,272,"CBA","yes",1,1053
"match",4,273,"ABA","yes",1,1119
"match",4,274,"ABA","no",1,858
"match",4,275,"ABA","yes",1,997
"match",4,276,"CBA","no",1,1121
"match",4,277,"CBA","no",1,894
"match",4,278,"ABA","no",1,1341
"match",4,279,"ABA","no",1,1302
"match",4,280,"CBA","no",1,1097
"match",4,281,"CBA","yes",1,1321
"match",4,282,"ABA","no",1,1279
"match",4,283,"CBA","no",1,594
"match",4,284,"CBA","no",1,1694
"match",4,285,"CBA","no",1,1655
"match",4,286,"CBA","yes",1,692
"match",4,287,"ABA","no",0,1565
"match",4,288,"CBA","no",1,3981
"match",4,289,"ABA","no",1,1351
"match",4,290,"ABA","yes",1,718
"match",4,291,"ABA","no",0,668
"match",4,292,"ABA","yes",1,1562
"match",4,293,"ABA","no",1,691
"match",4,294,"CBA","yes",1,1475
"match",4,295,"ABA","no",1,749
"match",4,296,"CBA","no",1,1159
"match",4,297,"CBA","no",1,1083
"match",4,298,"ABA","no",1,841
"match",4,299,"ABA","no",1,905
"match",4,300,"ABA","no",1,3026
"match",4,301,"CBA","yes",1,1458
"match",4,302,"ABA","no",1,760
"match",4,303,"ABA","yes",1,692
"match",4,304,"CBA","no",1,966
"match",4,305,"ABA","no",1,1172
"match",4,306,"ABA","yes",1,1165
"match",4,307,"CBA","no",1,912
"match",4,308,"ABA","no",1,1031
"match",4,309,"CBA","yes",1,1333
"match",4,310,"ABA","yes",1,775
"match",4,311,"CBA","no",1,1265
"match",4,312,"ABA","no",1,805
"match",4,313,"CBA","yes",1,832
"match",4,314,"CBA","no",1,836
"match",4,315,"CBA","no",1,625
"match",4,316,"ABA","no",1,4419
"match",4,317,"CBA","no",1,773
"match",4,318,"ABA","no",1,807
"match",4,319,"CBA","no",1,989
"match",4,320,"CBA","no",1,1166
"match",4,321,"ABA","no",1,609
"match",4,322,"ABA","no",1,1331
"match",4,323,"CBA","no",1,2688
"match",4,324,"CBA","no",1,1264
"match",4,325,"ABA","yes",1,1497
"match",4,326,"CBA","yes",1,1139
"match",4,327,"CBA","yes",1,585
"match",4,328,"CBA","no",1,1367
"match",4,329,"ABA","yes",1,728
"match",4,330,"CBA","no",1,866
"match",4,331,"CBA","yes",1,4006
"match",4,332,"ABA","no",1,798
"match",4,333,"ABA","no",1,1244
"match",4,334,"ABA","no",1,740
"match",4,335,"CBA","yes",1,500
"match",4,336,"ABA","no",1,922
"match",4,337,"ABA","yes",1,542
"match",4,338,"CBA","no",1,1956
"match",4,339,"CBA","yes",1,482
"match",4,340,"CBA","yes",1,559
"match",4,341,"ABA","no",1,942
"match",4,342,"ABA","no",1,529
"match",4,343,"CBA","yes",1,1003
"match",4,344,"ABA","no",1,1216
"match",4,345,"ABA","no",1,1033
"match",4,346,"ABA","yes",1,588
"match",4,347,"ABA","no",1,964
"match",4,348,"ABA","no",1,561
"match",4,349,"CBA","no",1,1306
"match",4,350,"CBA","no",1,2463
"match",4,351,"CBA","yes",1,1072
"match",4,352,"ABA","yes",1,1208
"match",4,353,"CBA","no",1,1573
"match",4,354,"CBA","no",1,1210
"match",4,355,"CBA","no",1,1558
"match",4,356,"ABA","no",1,436
"match",4,357,"CBA","yes",1,629
"match",4,358,"CBA","no",1,2551
"match",4,359,"ABA","no",1,1126
"match",4,360,"ABA","no",1,2702
"match",5,1,"CBA","no",1,509
"match",5,2,"CBA","no",1,645
"match",5,3,"ABA","no",1,1248
"match",5,4,"CBA","no",1,710
"match",5,5,"CBA","yes",1,815
"match",5,6,"CBA","no",1,609
"match",5,7,"ABA","no",1,632
"match",5,8,"CBA","yes",1,587
"match",5,9,"ABA","no",1,920
"match",5,10,"ABA","no",1,608
"match",5,11,"CBA","no",1,742
"match",5,12,"ABA","no",1,1047
"match",5,13,"CBA","no",1,608
"match",5,14,"ABA","no",1,600
"match",5,15,"ABA","yes",1,756
"match",5,16,"CBA","no",1,569
"match",5,17,"CBA","no",1,632
"match",5,18,"CBA","no",1,758
"match",5,19,"CBA","no",1,574
"match",5,20,"ABA","no",1,619
"match",5,21,"ABA","no",1,811
"match",5,22,"ABA","no",1,609
"match",5,23,"ABA","no",1,774
"match",5,24,"CBA","no",1,620
"match",5,25,"CBA","no",1,593
"match",5,26,"CBA","no",1,957
"match",5,27,"CBA","no",1,920
"match",5,28,"CBA","no",1,832
"match",5,29,"ABA","no",1,664
"match",5,30,"ABA","no",1,702
"match",5,31,"CBA","no",1,688
"match",5,32,"CBA","no",1,1027
"match",5,33,"ABA","no",1,624
"match",5,34,"ABA","no",1,858
"match",5,35,"CBA","no",1,581
"match",5,36,"CBA","no",1,740
"match",5,37,"ABA","no",1,745
"match",5,38,"ABA","no",1,672
"match",5,39,"ABA","no",1,706
"match",5,40,"ABA","no",1,744
"match",5,41,"ABA","no",1,583
"match",5,42,"CBA","no",1,584
"match",5,43,"ABA","no",1,1178
"match",5,44,"ABA","no",1,531
"match",5,45,"CBA","no",1,604
"match",5,46,"ABA","no",1,577
"match",5,47,"ABA","no",1,703
"match",5,48,"ABA","yes",1,865
"match",5,49,"ABA","yes",1,816
"match",5,50,"ABA","no",1,628
"match",5,51,"CBA","no",1,672
"match",5,52,"CBA","yes",1,598
"match",5,53,"CBA","no",1,558
"match",5,54,"CBA","no",1,739
"match",5,55,"ABA","no",1,612
"match",5,56,"ABA","no",1,818
"match",5,57,"ABA","no",1,605
"match",5,58,"CBA","no",1,577
"match",5,59,"ABA","no",1,1093
"match",5,60,"CBA","no",1,622
"match",5,61,"CBA","yes",1,541
"match",5,62,"CBA","no",1,676
"match",5,63,"CBA","yes",1,938
"match",5,64,"CBA","no",1,644
"match",5,65,"ABA","no",1,870
"match",5,66,"ABA","no",1,565
"match",5,67,"CBA","no",1,776
"match",5,68,"CBA","yes",1,1072
"match",5,69,"CBA","no",1,621
"match",5,70,"CBA","no",1,813
"match",5,71,"CBA","no",1,1187
"match",5,72,"CBA","no",1,561
"match",5,73,"ABA","yes",1,791
"match",5,74,"ABA","no",1,1015
"match",5,75,"ABA","no",1,1182
"match",5,76,"ABA","yes",1,725
"match",5,77,"CBA","no",1,811
"match",5,78,"ABA","no",1,565
"match",5,79,"ABA","yes",1,930
"match",5,80,"CBA","no",1,576
"match",5,81,"CBA","no",1,886
"match",5,82,"ABA","no",1,1062
"match",5,83,"ABA","no",1,745
"match",5,84,"CBA","no",1,764
"match",5,85,"ABA","no",1,636
"match",5,86,"ABA","yes",1,672
"match",5,87,"ABA","no",1,560
"match",5,88,"ABA","no",1,662
"match",5,89,"ABA","yes",1,753
"match",5,90,"CBA","no",1,1138
"match",5,91,"ABA","no",1,700
"match",5,92,"CBA","no",1,676
"match",5,93,"ABA","yes",1,827
"match",5,94,"CBA","no",0,1092
"match",5,95,"ABA","no",1,904
"match",5,96,"ABA","no",1,589
"match",5,97,"CBA","no",1,560
"match",5,98,"CBA","no",1,611
"match",5,99,"CBA","no",1,677
"match",5,100,"ABA","no",1,632
"match",5,101,"ABA","no",1,901
"match",5,102,"CBA","yes",1,640
"match",5,103,"CBA","no",1,914
"match",5,104,"ABA","no",1,812
"match",5,105,"ABA","no",1,738
"match",5,106,"CBA","no",1,850
"match",5,107,"CBA","yes",1,1470
"match",5,108,"CBA","no",1,961
"match",5,109,"ABA","no",1,732
"match",5,110,"ABA","no",1,975
"match",5,111,"ABA","yes",1,1352
"match",5,112,"CBA","no",1,637
"match",5,113,"ABA","no",1,661
"match",5,114,"CBA","no",1,667
"match",5,115,"ABA","no",1,656
"match",5,116,"ABA","no",1,680
"match",5,117,"CBA","no",1,546
"match",5,118,"CBA","yes",1,514
"match",5,119,"ABA","no",1,1076
"match",5,120,"CBA","yes",1,659
"match",5,121,"ABA","no",1,930
"match",5,122,"CBA","no",1,550
"match",5,123,"CBA","no",1,616
"match",5,124,"CBA","no",0,610
"match",5,125,"CBA","yes",1,943
"match",5,126,"ABA","yes",1,618
"match",5,127,"CBA","yes",1,520
"match",5,128,"ABA","no",1,1067
"match",5,129,"ABA","no",1,738
"match",5,130,"CBA","yes",1,731
"match",5,131,"CBA","no",1,1142
"match",5,132,"ABA","no",1,740
"match",5,133,"CBA","no",1,560
"match",5,134,"CBA","yes",1,608
"match",5,135,"CBA","no",1,537
"match",5,136,"ABA","no",1,605
"match",5,137,"CBA","no",1,498
"match",5,138,"ABA","no",0,493
"match",5,139,"ABA","no",1,748
"match",5,140,"CBA","yes",1,707
"match",5,141,"CBA","no",1,1184
"match",5,142,"ABA","no",1,774
"match",5,143,"CBA","yes",1,518
"match",5,144,"CBA","no",1,737
"match",5,145,"ABA","no",1,533
"match",5,146,"CBA","no",1,573
"match",5,147,"CBA","yes",1,1018
"match",5,148,"CBA","no",1,518
"match",5,149,"CBA","no",1,509
"match",5,150,"CBA","no",1,601
"match",5,151,"ABA","yes",1,540
"match",5,152,"ABA","yes",1,1410
"match",5,153,"CBA","no",1,528
"match",5,154,"ABA","no",1,684
"match",5,155,"ABA","yes",1,695
"match",5,156,"CBA","yes",1,555
"match",5,157,"CBA","no",1,647
"match",5,158,"ABA","no",1,608
"match",5,159,"ABA","no",1,783
"match",5,160,"CBA","no",1,608
"match",5,161,"ABA","no",1,553
"match",5,162,"CBA","no",1,598
"match",5,163,"ABA","yes",1,552
"match",5,164,"CBA","no",1,471
"match",5,165,"ABA","no",1,939
"match",5,166,"ABA","yes",1,682
"match",5,167,"CBA","no",1,688
"match",5,168,"CBA","no",1,510
"match",5,169,"CBA","no",1,559
"match",5,170,"ABA","no",1,689
"match",5,171,"ABA","no",1,722
"match",5,172,"CBA","yes",1,684
"match",5,173,"CBA","no",1,747
"match",5,174,"CBA","yes",1,527
"match",5,175,"CBA","yes",1,576
"match",5,176,"ABA","yes",0,551
"match",5,177,"CBA","no",1,1065
"match",5,178,"CBA","no",1,546
"match",5,179,"ABA","yes",1,820
"match",5,180,"ABA","no",1,704
"match",5,181,"CBA","yes",1,646
"match",5,182,"CBA","yes",1,886
"match",5,183,"ABA","yes",1,511
"match",5,184,"CBA","no",1,608
"match",5,185,"CBA","no",1,665
"match",5,186,"CBA","no",1,678
"match",5,187,"ABA","no",1,2194
"match",5,188,"CBA","no",1,609
"match",5,189,"ABA","no",1,534
"match",5,190,"ABA","no",1,607
"match",5,191,"CBA","no",1,550
"match",5,192,"ABA","no",1,586
"match",5,193,"ABA","yes",1,898
"match",5,194,"ABA","no",1,790
"match",5,195,"ABA","yes",1,606
"match",5,196,"ABA","no",1,610
"match",5,197,"CBA","no",1,860
"match",5,198,"CBA","yes",0,572
"match",5,199,"ABA","no",1,839
"match",5,200,"CBA","yes",1,1118
"match",5,201,"ABA","no",1,899
"match",5,202,"ABA","yes",1,655
"match",5,203,"CBA","yes",1,539
"match",5,204,"ABA","no",1,1064
"match",5,205,"ABA","no",1,613
"match",5,206,"CBA","no",1,512
"match",5,207,"ABA","yes",1,626
"match",5,208,"CBA","no",1,691
"match",5,209,"CBA","no",1,884
"match",5,210,"CBA","no",1,630
"match",5,211,"CBA","no",1,797
"match",5,212,"ABA","no",1,588
"match",5,213,"CBA","yes",1,568
"match",5,214,"ABA","no",1,548
"match",5,215,"ABA","yes",1,570
"match",5,216,"ABA","no",1,660
"match",5,217,"CBA","yes",1,503
"match",5,218,"ABA","no",1,598
"match",5,219,"CBA","no",1,562
"match",5,220,"CBA","yes",1,605
"match",5,221,"ABA","no",1,496
"match",5,222,"CBA","no",1,527
"match",5,223,"CBA","no",1,539
"match",5,224,"CBA","no",1,588
"match",5,225,"CBA","no",1,931
"match",5,226,"CBA","no",1,589
"match",5,227,"ABA","yes",1,785
"match",5,228,"CBA","no",1,928
"match",5,229,"ABA","no",1,607
"match",5,230,"CBA","no",1,638
"match",5,231,"CBA","yes",1,544
"match",5,232,"CBA","yes",1,532
"match",5,233,"CBA","no",1,565
"match",5,234,"ABA","no",1,878
"match",5,235,"CBA","no",1,550
"match",5,236,"CBA","yes",1,581
"match",5,237,"CBA","yes",1,560
"match",5,238,"ABA","no",1,555
"match",5,239,"CBA","no",1,1041
"match",5,240,"ABA","yes",1,557
"match",5,241,"CBA","no",1,812
"match",5,242,"CBA","no",1,539
"match",5,243,"CBA","no",1,593
"match",5,244,"ABA","no",1,598
"match",5,245,"CBA","yes",1,492
"match",5,246,"ABA","no",1,1028
"match",5,247,"ABA","no",1,697
"match",5,248,"ABA","no",1,635
"match",5,249,"CBA","no",1,529
"match",5,250,"CBA","no",1,560
"match",5,251,"ABA","no",0,766
"match",5,252,"CBA","yes",1,659
"match",5,253,"ABA","no",1,632
"match",5,254,"CBA","no",1,507
"match",5,255,"ABA","no",1,561
"match",5,256,"CBA","no",1,503
"match",5,257,"ABA","yes",1,577
"match",5,258,"ABA","yes",1,556
"match",5,259,"ABA","no",1,584
"match",5,260,"CBA","no",1,470
"match",5,261,"ABA","no",1,811
"match",5,262,"CBA","no",1,1031
"match",5,263,"CBA","no",1,577
"match",5,264,"ABA","no",1,1055
"match",5,265,"ABA","no",1,665
"match",5,266,"ABA","yes",1,874
"match",5,267,"ABA","no",1,611
"match",5,268,"CBA","no",1,593
"match",5,269,"ABA","no",1,610
"match",5,270,"ABA","no",1,927
"match",5,271,"ABA","no",1,638
"match",5,272,"CBA","no",1,673
"match",5,273,"ABA","yes",1,889
"match",5,274,"CBA","no",1,563
"match",5,275,"ABA","no",1,554
"match",5,276,"ABA","no",1,739
"match",5,277,"ABA","yes",1,525
"match",5,278,"CBA","no",1,562
"match",5,279,"ABA","no",1,867
"match",5,280,"ABA","no",1,844
"match",5,281,"ABA","no",1,617
"match",5,282,"CBA","no",1,607
"match",5,283,"ABA","yes",1,534
"match",5,284,"ABA","no",0,642
"match",5,285,"ABA","no",1,1144
"match",5,286,"ABA","no",1,1035
"match",5,287,"CBA","no",1,971
"match",5,288,"ABA","yes",1,525
"match",5,289,"ABA","yes",1,1894
"match",5,290,"ABA","no",1,1360
"match",5,291,"ABA","no",1,995
"match",5,292,"ABA","no",1,724
"match",5,293,"ABA","yes",1,614
"match",5,294,"CBA","yes",1,1025
"match",5,295,"ABA","no",1,583
"match",5,296,"ABA","yes",1,597
"match",5,297,"ABA","no",1,976
"match",5,298,"ABA","no",1,540
"match",5,299,"ABA","no",1,914
"match",5,300,"ABA","no",1,1112
"match",5,301,"CBA","yes",1,904
"match",5,302,"CBA","yes",1,865
"match",5,303,"ABA","no",1,863
"match",5,304,"CBA","no",1,708
"match",5,305,"ABA","no",1,1149
"match",5,306,"CBA","no",1,1344
"match",5,307,"CBA","no",1,730
"match",5,308,"CBA","no",1,742
"match",5,309,"ABA","no",1,1063
"match",5,310,"ABA","yes",1,1123
"match",5,311,"ABA","no",1,848
"match",5,312,"ABA","no",1,634
"match",5,313,"ABA","yes",1,526
"match",5,314,"ABA","no",1,544
"match",5,315,"CBA","yes",1,530
"match",5,316,"CBA","no",1,478
"match",5,317,"CBA","no",1,581
"match",5,318,"CBA","no",1,638
"match",5,319,"ABA","no",1,907
"match",5,320,"CBA","yes",1,566
"match",5,321,"CBA","yes",1,560
"match",5,322,"ABA","no",1,579
"match",5,323,"ABA","yes",1,595
"match",5,324,"CBA","no",1,495
"match",5,325,"ABA","yes",0,499
"match",5,326,"ABA","no",1,677
"match",5,327,"CBA","no",1,435
"match",5,328,"ABA","no",1,579
"match",5,329,"ABA","no",1,532
"match",5,330,"CBA","no",1,501
"match",5,331,"CBA","no",1,503
"match",5,332,"ABA","no",0,603
"match",5,333,"ABA","no",1,645
"match",5,334,"ABA","yes",1,1017
"match",5,335,"ABA","no",1,475
"match",5,336,"CBA","no",1,460
"match",5,337,"ABA","no",1,634
"match",5,338,"CBA","no",1,742
"match",5,339,"ABA","yes",1,1184
"match",5,340,"ABA","yes",1,944
"match",5,341,"CBA","no",1,537
"match",5,342,"CBA","no",1,654
"match",5,343,"CBA","no",1,631
"match",5,344,"CBA","no",1,533
"match",5,345,"CBA","no",1,571
"match",5,346,"ABA","yes",1,582
"match",5,347,"CBA","no",1,816
"match",5,348,"CBA","yes",1,760
"match",5,349,"CBA","no",1,593
"match",5,350,"CBA","no",0,523
"match",5,351,"CBA","no",1,699
"match",5,352,"CBA","no",1,768
"match",5,353,"ABA","no",1,625
"match",5,354,"ABA","no",1,523
"match",5,355,"CBA","no",1,616
"match",5,356,"ABA","yes",1,685
"match",5,357,"ABA","yes",1,640
"match",5,358,"ABA","no",1,562
"match",5,359,"ABA","no",1,874
"match",5,360,"ABA","no",1,1514
"match",6,1,"CBA","no",1,689
"match",6,2,"ABA","no",1,1642
"match",6,3,"ABA","yes",1,719
"match",6,4,"CBA","no",1,544
"match",6,5,"CBA","no",1,1948
"match",6,6,"CBA","no",1,720
"match",6,7,"ABA","yes",1,1489
"match",6,8,"CBA","no",1,1096
"match",6,9,"CBA","no",1,792
"match",6,10,"ABA","no",1,1154
"match",6,11,"ABA","no",1,2042
"match",6,12,"CBA","no",1,2469
"match",6,13,"ABA","yes",1,826
"match",6,14,"ABA","no",1,2183
"match",6,15,"ABA","no",1,1736
"match",6,16,"ABA","no",1,1665
"match",6,17,"ABA","no",1,1005
"match",6,18,"CBA","yes",1,752
"match",6,19,"CBA","no",1,5183
"match",6,20,"ABA","yes",1,1195
"match",6,21,"ABA","no",1,1687
"match",6,22,"ABA","yes",1,1024
"match",6,23,"CBA","yes",1,779
"match",6,24,"CBA","no",1,2294
"match",6,25,"ABA","no",1,779
"match",6,26,"ABA","no",1,1968
"match",6,27,"CBA","no",1,590
"match",6,28,"CBA","no",1,756
"match",6,29,"ABA","yes",1,3294
"match",6,30,"ABA","yes",1,603
"match",6,31,"ABA","no",1,1465
"match",6,32,"ABA","no",1,796
"match",6,33,"CBA","yes",1,2587
"match",6,34,"CBA","no",0,1251
"match",6,35,"CBA","no",1,1696
"match",6,36,"CBA","no",1,2559
"match",6,37,"ABA","no",1,1123
"match",6,38,"CBA","no",1,775
"match",6,39,"ABA","no",1,639
"match",6,40,"ABA","no",1,1178
"match",6,41,"ABA","yes",1,950
"match",6,42,"CBA","no",1,1148
"match",6,43,"ABA","no",1,783
"match",6,44,"CBA","no",1,1328
"match",6,45,"ABA","no",1,819
"match",6,46,"CBA","no",1,2316
"match",6,47,"ABA","no",1,1121
"match",6,48,"CBA","no",1,993
"match",6,49,"ABA","no",1,650
"match",6,50,"ABA","no",1,718
"match",6,51,"ABA","no",1,1323
"match",6,52,"ABA","no",1,1116
"match",6,53,"ABA","yes",1,719
"match",6,54,"ABA","no",1,1224
"match",6,55,"CBA","yes",1,1275
"match",6,56,"ABA","yes",1,935
"match",6,57,"ABA","no",1,1369
"match",6,58,"ABA","no",1,2452
"match",6,59,"CBA","no",1,716
"match",6,60,"ABA","no",1,1552
"match",6,61,"CBA","no",1,1087
"match",6,62,"ABA","no",1,1000
"match",6,63,"ABA","no",1,1255
"match",6,64,"CBA","yes",1,664
"match",6,65,"ABA","yes",1,1745
"match",6,66,"CBA","no",1,1559
"match",6,67,"CBA","no",1,965
"match",6,68,"CBA","yes",1,1227
"match",6,69,"ABA","no",1,869
"match",6,70,"CBA","no",1,919
"match",6,71,"CBA","yes",1,2773
"match",6,72,"ABA","no",1,996
"match",6,73,"CBA","no",1,751
"match",6,74,"ABA","yes",1,746
"match",6,75,"CBA","no",1,739
"match",6,76,"ABA","yes",1,2416
"match",6,77,"ABA","no",1,1812
"match",6,78,"ABA","yes",1,760
"match",6,79,"CBA","no",1,1007
"match",6,80,"ABA","no",1,1216
"match",6,81,"ABA","no",1,745
"match",6,82,"CBA","no",1,964
"match",6,83,"ABA","no",1,1280
"match",6,84,"CBA","no",1,1921
"match",6,85,"CBA","no",1,1640
"match",6,86,"CBA","no",1,714
"match",6,87,"ABA","no",1,1303
"match",6,88,"ABA","yes",1,766
"match",6,89,"ABA","no",1,1667
"match",6,90,"CBA","no",1,635
"match",6,91,"CBA","yes",1,734
"match",6,92,"ABA","no",1,982
"match",6,93,"CBA","no",1,1620
"match",6,94,"ABA","yes",1,1099
"match",6,95,"ABA","no",1,1113
"match",6,96,"CBA","no",1,992
"match",6,97,"CBA","no",1,2868
"match",6,98,"CBA","no",1,1365
"match",6,99,"CBA","no",1,2500
"match",6,100,"CBA","no",1,1672
"match",6,101,"CBA","yes",1,1538
"match",6,102,"CBA","no",1,725
"match",6,103,"ABA","no",1,1433
"match",6,104,"CBA","no",1,614
"match",6,105,"ABA","no",1,1304
"match",6,106,"CBA","no",1,558
"match",6,107,"ABA","no",1,1273
"match",6,108,"ABA","yes",1,815
"match",6,109,"ABA","yes",1,1241
"match",6,110,"ABA","no",1,845
"match",6,111,"CBA","no",1,1152
"match",6,112,"ABA","no",1,1527
"match",6,113,"CBA","no",1,1390
"match",6,114,"CBA","no",1,1364
"match",6,115,"ABA","no",1,9463
"match",6,116,"ABA","no",1,4245
"match",6,117,"CBA","no",1,565
"match",6,118,"ABA","yes",1,723
"match",6,119,"ABA","no",1,1313
"match",6,120,"ABA","yes",1,1386
"match",6,121,"ABA","no",1,1847
"match",6,122,"ABA","yes",1,1412
"match",6,123,"ABA","no",1,703
"match",6,124,"ABA","no",1,820
"match",6,125,"ABA","no",1,1506
"match",6,126,"ABA","no",1,949
"match",6,127,"ABA","no",1,655
"match",6,128,"CBA","yes",1,1220
"match",6,129,"ABA","yes",1,1157
"match",6,130,"ABA","no",1,1800
"match",6,131,"ABA","no",1,816
"match",6,132,"CBA","no",1,900
"match",6,133,"ABA","no",1,1465
"match",6,134,"ABA","no",1,1896
"match",6,135,"ABA","yes",1,1341
"match",6,136,"ABA","no",1,1088
"match",6,137,"ABA","no",1,851
"match",6,138,"ABA","yes",1,1591
"match",6,139,"ABA","no",1,1955
"match",6,140,"CBA","no",1,1702
"match",6,141,"ABA","no",1,2895
"match",6,142,"CBA","no",1,1265
"match",6,143,"ABA","yes",1,2257
"match",6,144,"ABA","no",1,833
"match",6,145,"CBA","yes",1,627
"match",6,146,"CBA","no",1,819
"match",6,147,"CBA","no",1,767
"match",6,148,"CBA","no",1,635
"match",6,149,"CBA","yes",1,790
"match",6,150,"ABA","no",1,2530
"match",6,151,"ABA","no",1,1236
"match",6,152,"ABA","no",1,1583
"match",6,153,"ABA","yes",1,948
"match",6,154,"ABA","no",1,1154
"match",6,155,"ABA","yes",1,747
"match",6,156,"ABA","no",1,1457
"match",6,157,"ABA","yes",1,815
"match",6,158,"ABA","no",1,1387
"match",6,159,"ABA","no",1,2049
"match",6,160,"ABA","no",1,1222
"match",6,161,"CBA","yes",1,819
"match",6,162,"ABA","no",1,2896
"match",6,163,"ABA","no",1,853
"match",6,164,"CBA","no",1,812
"match",6,165,"ABA","yes",1,1350
"match",6,166,"CBA","no",1,2289
"match",6,167,"CBA","no",1,1358
"match",6,168,"ABA","no",1,1668
"match",6,169,"ABA","yes",1,675
"match",6,170,"ABA","no",1,1002
"match",6,171,"CBA","no",1,595
"match",6,172,"ABA","no",1,1957
"match",6,173,"CBA","no",0,1801
"match",6,174,"ABA","no",1,1896
"match",6,175,"CBA","yes",1,1139
"match",6,176,"ABA","no",1,3666
"match",6,177,"CBA","no",1,710
"match",6,178,"CBA","no",1,733
"match",6,179,"CBA","no",1,1346
"match",6,180,"ABA","no",1,876
"match",6,181,"ABA","yes",1,2540
"match",6,182,"CBA","no",1,854
"match",6,183,"ABA","yes",1,3159
"match",6,184,"CBA","no",1,799
"match",6,185,"ABA","yes",1,722
"match",6,186,"ABA","no",1,667
"match",6,187,"CBA","yes",1,757
"match",6,188,"ABA","no",1,1424
"match",6,189,"CBA","yes",1,632
"match",6,190,"ABA","no",1,1307
"match",6,191,"ABA","no",1,1619
"match",6,192,"CBA","no",1,1150
"match",6,193,"CBA","no",1,924
"match",6,194,"CBA","no",1,746
"match",6,195,"ABA","yes",1,1003
"match",6,196,"CBA","no",1,946
"match",6,197,"ABA","no",1,1198
"match",6,198,"ABA","no",1,796
"match",6,199,"CBA","yes",1,1440
"match",6,200,"CBA","yes",1,1312
"match",6,201,"CBA","yes",1,1987
"match",6,202,"CBA","no",1,2982
"match",6,203,"ABA","yes",1,484
"match",6,204,"ABA","yes",1,668
"match",6,205,"CBA","no",1,746
"match",6,206,"CBA","no",1,837
"match",6,207,"ABA","no",1,1159
"match",6,208,"ABA","no",1,656
"match",6,209,"ABA","no",1,754
"match",6,210,"ABA","yes",1,979
"match",6,211,"CBA","no",1,1293
"match",6,212,"ABA","no",1,2056
"match",6,213,"CBA","no",1,1306
"match",6,214,"ABA","no",1,3793
"match",6,215,"CBA","yes",1,2955
"match",6,216,"ABA","no",1,1972
"match",6,217,"CBA","no",1,776
"match",6,218,"CBA","yes",1,716
"match",6,219,"CBA","no",1,1877
"match",6,220,"ABA","no",1,1513
"match",6,221,"CBA","no",1,769
"match",6,222,"ABA","no",1,1690
"match",6,223,"CBA","no",1,1765
"match",6,224,"ABA","no",1,1659
"match",6,225,"CBA","no",1,583
"match",6,226,"ABA","yes",1,816
"match",6,227,"CBA","no",1,788
"match",6,228,"ABA","yes",1,662
"match",6,229,"CBA","yes",1,1325
"match",6,230,"CBA","yes",1,976
"match",6,231,"CBA","yes",1,2951
"match",6,232,"ABA","yes",1,622
"match",6,233,"ABA","no",1,1605
"match",6,234,"ABA","yes",1,1869
"match",6,235,"CBA","no",1,1158
"match",6,236,"CBA","no",1,1977
"match",6,237,"ABA","yes",1,5550
"match",6,238,"ABA","no",1,674
"match",6,239,"CBA","no",1,579
"match",6,240,"ABA","no",1,1775
"match",6,241,"ABA","no",1,730
"match",6,242,"CBA","no",1,589
"match",6,243,"ABA","no",1,916
"match",6,244,"ABA","yes",1,622
"match",6,245,"ABA","no",1,588
"match",6,246,"CBA","no",1,765
"match",6,247,"CBA","no",1,944
"match",6,248,"CBA","no",1,712
"match",6,249,"ABA","no",1,1531
"match",6,250,"ABA","yes",1,908
"match",6,251,"CBA","no",1,1037
"match",6,252,"ABA","no",1,683
"match",6,253,"CBA","no",1,1505
"match",6,254,"CBA","yes",1,946
"match",6,255,"ABA","yes",1,801
"match",6,256,"CBA","yes",1,640
"match",6,257,"ABA","no",1,1164
"match",6,258,"ABA","no",1,2146
"match",6,259,"CBA","yes",1,912
"match",6,260,"ABA","no",1,1710
"match",6,261,"CBA","no",1,726
"match",6,262,"CBA","no",1,1331
"match",6,263,"ABA","yes",1,1157
"match",6,264,"ABA","no",1,675
"match",6,265,"ABA","no",1,714
"match",6,266,"ABA","no",1,807
"match",6,267,"ABA","no",1,1006
"match",6,268,"CBA","no",1,876
"match",6,269,"ABA","no",1,1090
"match",6,270,"CBA","no",1,647
"match",6,271,"ABA","yes",1,657
"match",6,272,"CBA","no",1,728
"match",6,273,"ABA","no",1,1501
"match",6,274,"ABA","no",1,1610
"match",6,275,"CBA","no",1,947
"match",6,276,"CBA","no",1,712
"match",6,277,"ABA","no",1,681
"match",6,278,"ABA","no",1,718
"match",6,279,"CBA","no",1,478
"match",6,280,"CBA","yes",1,1110
"match",6,281,"CBA","no",1,752
"match",6,282,"CBA","no",1,657
"match",6,283,"CBA","no",1,1333
"match",6,284,"CBA","no",1,676
"match",6,285,"CBA","yes",1,1037
"match",6,286,"CBA","no",1,1550
"match",6,287,"CBA","no",1,752
"match",6,288,"ABA","no",1,1250
"match",6,289,"ABA","no",1,642
"match",6,290,"CBA","no",1,740
"match",6,291,"ABA","yes",1,685
"match",6,292,"CBA","no",1,899
"match",6,293,"CBA","no",1,944
"match",6,294,"CBA","no",1,3003
"match",6,295,"CBA","yes",1,3283
"match",6,296,"ABA","no",1,556
"match",6,297,"ABA","no",1,956
"match",6,298,"ABA","yes",1,661
"match",6,299,"ABA","no",1,766
"match",6,300,"CBA","yes",1,543
"match",6,301,"ABA","no",1,1664
"match",6,302,"CBA","no",1,723
"match",6,303,"ABA","no",1,1026
"match",6,304,"ABA","yes",1,866
"match",6,305,"CBA","yes",1,2249
"match",6,306,"ABA","no",1,723
"match",6,307,"CBA","no",1,1346
"match",6,308,"ABA","no",1,830
"match",6,309,"CBA","no",1,543
"match",6,310,"CBA","no",1,2242
"match",6,311,"ABA","no",1,760
"match",6,312,"CBA","no",1,715
"match",6,313,"ABA","yes",1,1107
"match",6,314,"ABA","yes",1,816
"match",6,315,"ABA","no",1,701
"match",6,316,"CBA","no",1,1006
"match",6,317,"CBA","no",1,844
"match",6,318,"ABA","yes",1,686
"match",6,319,"ABA","yes",1,694
"match",6,320,"ABA","yes",1,1330
"match",6,321,"CBA","yes",1,2014
"match",6,322,"ABA","no",1,4118
"match",6,323,"ABA","no",1,1174
"match",6,324,"ABA","no",1,3049
"match",6,325,"ABA","no",1,1736
"match",6,326,"CBA","no",1,929
"match",6,327,"ABA","yes",1,1084
"match",6,328,"CBA","no",1,1196
"match",6,329,"ABA","yes",1,728
"match",6,330,"CBA","yes",1,540
"match",6,331,"CBA","no",1,635
"match",6,332,"CBA","no",1,752
"match",6,333,"ABA","no",1,4064
"match",6,334,"CBA","no",1,687
"match",6,335,"ABA","yes",1,630
"match",6,336,"ABA","yes",1,560
"match",6,337,"CBA","yes",1,474
"match",6,338,"CBA","no",1,1981
"match",6,339,"CBA","yes",1,934
"match",6,340,"CBA","no",1,731
"match",6,341,"CBA","no",1,1400
"match",6,342,"ABA","no",1,1010
"match",6,343,"ABA","no",1,1676
"match",6,344,"ABA","yes",1,950
"match",6,345,"CBA","no",1,1007
"match",6,346,"CBA","no",1,1352
"match",6,347,"ABA","no",1,606
"match",6,348,"CBA","no",1,517
"match",6,349,"CBA","no",1,625
"match",6,350,"CBA","no",1,1378
"match",6,351,"CBA","no",1,990
"match",6,352,"ABA","no",1,840
"match",6,353,"CBA","no",1,551
"match",6,354,"ABA","no",1,621
"match",6,355,"CBA","yes",1,630
"match",6,356,"ABA","no",1,851
"match",6,357,"CBA","no",1,751
"match",6,358,"CBA","yes",1,659
"match",6,359,"ABA","yes",1,1342
"match",6,360,"CBA","no",1,671
"match",7,1,"CBA","no",1,825
"match",7,2,"CBA","no",1,864
"match",7,3,"CBA","no",1,531
"match",7,4,"ABA","no",1,626
"match",7,5,"CBA","no",1,525
"match",7,6,"CBA","no",1,513
"match",7,7,"CBA","no",1,1772
"match",7,8,"ABA","no",1,503
"match",7,9,"CBA","no",1,486
"match",7,10,"ABA","no",1,596
"match",7,11,"ABA","no",1,502
"match",7,12,"ABA","no",1,659
"match",7,13,"CBA","no",1,624
"match",7,14,"CBA","yes",1,530
"match",7,15,"ABA","yes",1,857
"match",7,16,"ABA","no",1,681
"match",7,17,"ABA","no",1,527
"match",7,18,"CBA","no",1,598
"match",7,19,"CBA","no",1,511
"match",7,20,"ABA","yes",1,663
"match",7,21,"ABA","yes",1,521
"match",7,22,"ABA","no",1,719
"match",7,23,"CBA","no",1,503
"match",7,24,"CBA","no",1,1061
"match",7,25,"CBA","no",1,552
"match",7,26,"CBA","no",1,522
"match",7,27,"ABA","yes",1,1273
"match",7,28,"CBA","no",1,488
"match",7,29,"ABA","no",1,1354
"match",7,30,"CBA","no",1,484
"match",7,31,"CBA","yes",1,479
"match",7,32,"ABA","no",1,475
"match",7,33,"ABA","no",1,677
"match",7,34,"CBA","yes",1,1133
"match",7,35,"CBA","yes",1,872
"match",7,36,"ABA","yes",1,684
"match",7,37,"CBA","no",1,553
"match",7,38,"ABA","no",1,767
"match",7,39,"ABA","no",1,516
"match",7,40,"ABA","yes",1,543
"match",7,41,"CBA","no",1,589
"match",7,42,"ABA","no",1,1861
"match",7,43,"ABA","yes",1,533
"match",7,44,"ABA","no",1,711
"match",7,45,"ABA","yes",1,546
"match",7,46,"CBA","no",1,565
"match",7,47,"CBA","yes",1,698
"match",7,48,"ABA","yes",1,499
"match",7,49,"CBA","no",1,572
"match",7,50,"ABA","no",1,551
"match",7,51,"CBA","no",1,667
"match",7,52,"ABA","yes",1,607
"match",7,53,"ABA","no",1,971
"match",7,54,"CBA","no",1,496
"match",7,55,"CBA","yes",1,479
"match",7,56,"CBA","yes",1,543
"match",7,57,"ABA","no",1,1667
"match",7,58,"CBA","no",1,510
"match",7,59,"ABA","no",1,463
"match",7,60,"CBA","yes",1,779
"match",7,61,"CBA","no",1,969
"match",7,62,"ABA","yes",1,1510
"match",7,63,"CBA","no",1,523
"match",7,64,"CBA","no",1,517
"match",7,65,"CBA","no",1,531
"match",7,66,"ABA","yes",1,645
"match",7,67,"CBA","no",1,510
"match",7,68,"CBA","yes",1,698
"match",7,69,"CBA","no",1,522
"match",7,70,"ABA","no",1,1065
"match",7,71,"CBA","no",1,478
"match",7,72,"ABA","no",1,864
"match",7,73,"ABA","no",1,488
"match",7,74,"CBA","yes",1,524
"match",7,75,"ABA","no",1,479
"match",7,76,"ABA","no",1,639
"match",7,77,"ABA","yes",1,560
"match",7,78,"CBA","no",1,522
"match",7,79,"ABA","no",1,1149
"match",7,80,"ABA","no",1,595
"match",7,81,"ABA","no",1,610
"match",7,82,"CBA","no",1,513
"match",7,83,"CBA","no",1,1390
"match",7,84,"ABA","no",1,461
"match",7,85,"ABA","no",1,970
"match",7,86,"ABA","yes",1,510
"match",7,87,"ABA","no",1,484
"match",7,88,"ABA","no",1,464
"match",7,89,"CBA","no",1,543
"match",7,90,"CBA","no",1,716
"match",7,91,"CBA","no",1,617
"match",7,92,"CBA","no",1,432
"match",7,93,"ABA","yes",1,524
"match",7,94,"CBA","no",1,946
"match",7,95,"ABA","yes",1,479
"match",7,96,"ABA","no",1,773
"match",7,97,"CBA","no",1,692
"match",7,98,"ABA","no",1,675
"match",7,99,"CBA","no",1,461
"match",7,100,"CBA","yes",1,713
"match",7,101,"CBA","no",1,1786
"match",7,102,"ABA","no",1,440
"match",7,103,"ABA","no",1,449
"match",7,104,"ABA","no",1,746
"match",7,105,"ABA","no",1,515
"match",7,106,"CBA","no",1,622
"match",7,107,"ABA","no",1,1048
"match",7,108,"CBA","no",1,466
"match",7,109,"CBA","no",1,504
"match",7,110,"CBA","no",1,983
"match",7,111,"CBA","no",1,505
"match",7,112,"ABA","yes",1,457
"match",7,113,"ABA","no",1,465
"match",7,114,"CBA","yes",1,669
"match",7,115,"CBA","yes",1,712
"match",7,116,"ABA","yes",1,464
"match",7,117,"CBA","no",1,523
"match",7,118,"ABA","no",1,559
"match",7,119,"ABA","yes",1,510
"match",7,120,"CBA","no",1,957
"match",7,121,"ABA","no",1,543
"match",7,122,"CBA","no",1,553
"match",7,123,"ABA","no",1,693
"match",7,124,"ABA","no",1,762
"match",7,125,"ABA","yes",1,1350
"match",7,126,"ABA","yes",1,694
"match",7,127,"ABA","no",1,770
"match",7,128,"ABA","yes",1,516
"match",7,129,"ABA","no",1,1460
"match",7,130,"CBA","no",1,720
"match",7,131,"ABA","no",1,592
"match",7,132,"ABA","no",1,593
"match",7,133,"CBA","no",1,562
"match",7,134,"ABA","no",1,846
"match",7,135,"CBA","no",1,498
"match",7,136,"CBA","no",1,513
"match",7,137,"ABA","no",1,557
"match",7,138,"CBA","no",1,527
"match",7,139,"ABA","no",1,448
"match",7,140,"CBA","no",1,506
"match",7,141,"CBA","no",1,783
"match",7,142,"ABA","no",1,565
"match",7,143,"ABA","no",1,559
"match",7,144,"ABA","no",1,1276
"match",7,145,"CBA","no",1,554
"match",7,146,"CBA","yes",1,1267
"match",7,147,"ABA","no",1,960
"match",7,148,"ABA","no",1,571
"match",7,149,"ABA","no",1,661
"match",7,150,"CBA","yes",1,2360
"match",7,151,"ABA","yes",1,764
"match",7,152,"ABA","yes",1,443
"match",7,153,"ABA","no",1,710
"match",7,154,"ABA","no",1,1044
"match",7,155,"ABA","no",1,453
"match",7,156,"CBA","no",1,627
"match",7,157,"ABA","no",1,511
"match",7,158,"CBA","no",1,752
"match",7,159,"CBA","no",1,446
"match",7,160,"CBA","no",1,487
"match",7,161,"CBA","no",1,546
"match",7,162,"CBA","no",1,881
"match",7,163,"ABA","no",1,1118
"match",7,164,"ABA","yes",1,565
"match",7,165,"CBA","no",1,855
"match",7,166,"ABA","no",1,605
"match",7,167,"CBA","no",1,469
"match",7,168,"CBA","yes",1,573
"match",7,169,"CBA","no",1,655
"match",7,170,"ABA","yes",1,791
"match",7,171,"CBA","no",1,603
"match",7,172,"ABA","no",1,1328
"match",7,173,"CBA","no",1,1045
"match",7,174,"CBA","no",1,2272
"match",7,175,"ABA","no",1,868
"match",7,176,"ABA","no",1,853
"match",7,177,"ABA","no",1,799
"match",7,178,"CBA","no",1,700
"match",7,179,"ABA","no",1,2272
"match",7,180,"CBA","no",1,470
"match",7,181,"ABA","no",0,661
"match",7,182,"CBA","no",1,555
"match",7,183,"CBA","yes",1,505
"match",7,184,"ABA","no",1,791
"match",7,185,"CBA","no",1,792
"match",7,186,"CBA","no",1,569
"match",7,187,"ABA","no",1,566
"match",7,188,"ABA","yes",1,739
"match",7,189,"ABA","no",1,611
"match",7,190,"CBA","no",1,617
"match",7,191,"CBA","no",1,550
"match",7,192,"CBA","no",1,671
"match",7,193,"CBA","no",1,565
"match",7,194,"CBA","no",1,574
"match",7,195,"CBA","no",1,531
"match",7,196,"CBA","no",1,537
"match",7,197,"ABA","yes",1,836
"match",7,198,"ABA","no",1,672
"match",7,199,"CBA","no",1,627
"match",7,200,"CBA","no",1,1126
"match",7,201,"ABA","no",1,575
"match",7,202,"ABA","yes",1,582
"match",7,203,"ABA","no",1,608
"match",7,204,"ABA","no",1,460
"match",7,205,"CBA","no",1,647
"match",7,206,"CBA","no",1,527
"match",7,207,"CBA","yes",1,1217
"match",7,208,"CBA","yes",1,537
"match",7,209,"CBA","no",1,564
"match",7,210,"CBA","no",1,697
"match",7,211,"CBA","no",1,504
"match",7,212,"ABA","no",1,537
"match",7,213,"ABA","yes",1,548
"match",7,214,"ABA","yes",1,999
"match",7,215,"CBA","no",1,468
"match",7,216,"ABA","no",1,675
"match",7,217,"CBA","no",1,516
"match",7,218,"CBA","yes",1,525
"match",7,219,"CBA","no",1,565
"match",7,220,"ABA","no",1,608
"match",7,221,"ABA","yes",1,499
"match",7,222,"ABA","no",1,654
"match",7,223,"CBA","yes",1,504
"match",7,224,"CBA","no",1,506
"match",7,225,"CBA","yes",1,2028
"match",7,226,"ABA","no",1,476
"match",7,227,"ABA","no",1,832
"match",7,228,"CBA","no",1,454
"match",7,229,"CBA","no",1,414
"match",7,230,"ABA","no",1,2491
"match",7,231,"ABA","no",1,1596
"match",7,232,"ABA","yes",1,1775
"match",7,233,"ABA","no",1,479
"match",7,234,"CBA","yes",1,471
"match",7,235,"ABA","yes",1,1201
"match",7,236,"ABA","no",1,455
"match",7,237,"ABA","no",1,562
"match",7,238,"CBA","no",1,503
"match",7,239,"CBA","yes",1,852
"match",7,240,"CBA","yes",1,715
"match",7,241,"ABA","no",1,866
"match",7,242,"CBA","no",1,486
"match",7,243,"CBA","no",1,496
"match",7,244,"ABA","no",1,1066
"match",7,245,"CBA","no",1,469
"match",7,246,"ABA","no",1,665
"match",7,247,"ABA","no",1,559
"match",7,248,"CBA","no",1,784
"match",7,249,"ABA","no",1,762
"match",7,250,"ABA","no",1,506
"match",7,251,"ABA","no",1,661
"match",7,252,"CBA","no",1,456
"match",7,253,"ABA","no",1,578
"match",7,254,"CBA","no",1,546
"match",7,255,"ABA","yes",1,637
"match",7,256,"CBA","no",1,595
"match",7,257,"ABA","no",1,3013
"match",7,258,"ABA","yes",1,585
"match",7,259,"ABA","no",1,522
"match",7,260,"ABA","no",1,563
"match",7,261,"CBA","no",1,554
"match",7,262,"CBA","no",1,554
"match",7,263,"CBA","no",0,507
"match",7,264,"ABA","no",1,629
"match",7,265,"CBA","no",1,486
"match",7,266,"ABA","no",1,590
"match",7,267,"ABA","no",1,559
"match",7,268,"ABA","yes",1,620
"match",7,269,"CBA","no",1,489
"match",7,270,"ABA","no",1,525
"match",7,271,"CBA","no",1,574
"match",7,272,"CBA","yes",1,733
"match",7,273,"CBA","no",1,671
"match",7,274,"ABA","no",1,499
"match",7,275,"ABA","no",1,612
"match",7,276,"CBA","yes",1,711
"match",7,277,"CBA","no",1,532
"match",7,278,"CBA","yes",1,522
"match",7,279,"CBA","no",1,744
"match",7,280,"CBA","yes",1,533
"match",7,281,"CBA","yes",1,456
"match",7,282,"CBA","no",1,534
"match",7,283,"CBA","no",1,540
"match",7,284,"CBA","no",1,572
"match",7,285,"CBA","no",1,741
"match",7,286,"CBA","no",1,463
"match",7,287,"CBA","no",1,493
"match",7,288,"CBA","no",1,642
"match",7,289,"ABA","no",1,534
"match",7,290,"ABA","yes",1,977
"match",7,291,"ABA","yes",1,515
"match",7,292,"ABA","yes",1,569
"match",7,293,"ABA","no",1,1094
"match",7,294,"CBA","no",1,504
"match",7,295,"CBA","no",1,1134
"match",7,296,"ABA","no",1,637
"match",7,297,"CBA","no",1,1000
"match",7,298,"ABA","no",1,633
"match",7,299,"CBA","no",1,477
"match",7,300,"ABA","yes",1,472
"match",7,301,"CBA","yes",1,522
"match",7,302,"ABA","no",1,840
"match",7,303,"CBA","yes",1,500
"match",7,304,"CBA","no",1,1650
"match",7,305,"CBA","yes",1,486
"match",7,306,"CBA","no",1,494
"match",7,307,"ABA","no",1,448
"match",7,308,"ABA","no",1,548
"match",7,309,"ABA","yes",1,880
"match",7,310,"ABA","yes",1,449
"match",7,311,"CBA","no",1,3414
"match",7,312,"ABA","no",1,650
"match",7,313,"ABA","no",1,1101
"match",7,314,"CBA","yes",1,528
"match",7,315,"ABA","yes",1,561
"match",7,316,"ABA","no",1,622
"match",7,317,"CBA","yes",1,1116
"match",7,318,"ABA","yes",1,498
"match",7,319,"ABA","no",1,980
"match",7,320,"CBA","no",1,456
"match",7,321,"ABA","no",1,565
"match",7,322,"ABA","yes",1,848
"match",7,323,"ABA","no",1,905
"match",7,324,"ABA","yes",1,500
"match",7,325,"ABA","no",1,945
"match",7,326,"ABA","no",1,645
"match",7,327,"ABA","yes",1,1110
"match",7,328,"ABA","no",1,714
"match",7,329,"ABA","no",1,775
"match",7,330,"ABA","no",1,477
"match",7,331,"CBA","no",1,720
"match",7,332,"ABA","no",1,574
"match",7,333,"ABA","no",1,494
"match",7,334,"ABA","no",1,823
"match",7,335,"CBA","no",1,531
"match",7,336,"CBA","no",1,622
"match",7,337,"ABA","no",1,1090
"match",7,338,"CBA","yes",1,498
"match",7,339,"CBA","no",1,726
"match",7,340,"ABA","yes",1,574
"match",7,341,"ABA","no",1,602
"match",7,342,"CBA","no",1,660
"match",7,343,"ABA","yes",1,652
"match",7,344,"ABA","no",1,589
"match",7,345,"CBA","yes",1,596
"match",7,346,"ABA","no",1,517
"match",7,347,"ABA","no",1,508
"match",7,348,"CBA","yes",1,420
"match",7,349,"ABA","yes",1,528
"match",7,350,"ABA","yes",1,519
"match",7,351,"ABA","yes",1,612
"match",7,352,"ABA","no",1,487
"match",7,353,"CBA","no",1,569
"match",7,354,"CBA","yes",1,595
"match",7,355,"CBA","no",1,482
"match",7,356,"ABA","no",1,528
"match",7,357,"ABA","yes",1,584
"match",7,358,"CBA","no",1,1607
"match",7,359,"CBA","no",1,460
"match",7,360,"CBA","no",1,669
"match",8,1,"CBA","no",1,1905
"match",8,2,"ABA","no",1,1127
"match",8,3,"ABA","no",1,994
"match",8,4,"CBA","no",1,892
"match",8,5,"ABA","no",1,1748
"match",8,6,"ABA","no",1,1205
"match",8,7,"ABA","no",1,2551
"match",8,8,"CBA","no",0,2174
"match",8,9,"ABA","no",1,1850
"match",8,10,"ABA","no",1,821
"match",8,11,"CBA","no",1,1179
"match",8,12,"CBA","yes",0,1265
"match",8,13,"CBA","no",1,2057
"match",8,14,"CBA","no",1,2102
"match",8,15,"CBA","yes",1,3480
"match",8,16,"CBA","no",1,1177
"match",8,17,"ABA","no",1,1870
"match",8,18,"ABA","no",1,866
"match",8,19,"ABA","no",1,1208
"match",8,20,"CBA","no",1,854
"match",8,21,"CBA","no",1,2524
"match",8,22,"ABA","yes",1,1792
"match",8,23,"ABA","no",1,1170
"match",8,24,"CBA","no",1,1152
"match",8,25,"ABA","no",1,1308
"match",8,26,"ABA","no",1,1471
"match",8,27,"ABA","no",1,1233
"match",8,28,"ABA","yes",1,2494
"match",8,29,"CBA","no",1,1742
"match",8,30,"CBA","no",1,2106
"match",8,31,"ABA","no",1,2404
"match",8,32,"ABA","no",0,1197
"match",8,33,"CBA","no",1,5646
"match",8,34,"ABA","yes",1,1588
"match",8,35,"ABA","no",1,2167
"match",8,36,"CBA","no",1,1833
"match",8,37,"CBA","yes",1,2451
"match",8,38,"ABA","no",1,1651
"match",8,39,"CBA","no",1,1375
"match",8,40,"CBA","no",1,2638
"match",8,41,"CBA","yes",1,1425
"match",8,42,"CBA","yes",1,1053
"match",8,43,"ABA","yes",1,1874
"match",8,44,"CBA","no",1,1506
"match",8,45,"ABA","no",1,1830
"match",8,46,"ABA","yes",1,1499
"match",8,47,"CBA","no",1,1142
"match",8,48,"ABA","no",0,988
"match",8,49,"CBA","no",1,2475
"match",8,50,"CBA","no",1,1885
"match",8,51,"ABA","yes",1,1282
"match",8,52,"ABA","no",1,3364
"match",8,53,"CBA","no",1,1217
"match",8,54,"CBA","no",1,1094
"match",8,55,"CBA","yes",1,1629
"match",8,56,"ABA","no",1,1739
"match",8,57,"ABA","no",1,1360
"match",8,58,"ABA","no",1,1265
"match",8,59,"ABA","yes",1,1079
"match",8,60,"CBA","no",1,1194
"match",8,61,"CBA","no",1,1200
"match",8,62,"ABA","no",1,2228
"match",8,63,"CBA","yes",1,865
"match",8,64,"CBA","no",1,1144
"match",8,65,"ABA","no",1,976
"match",8,66,"ABA","no",1,920
"match",8,67,"ABA","no",1,1776
"match",8,68,"CBA","no",1,1163
"match",8,69,"ABA","yes",1,1626
"match",8,70,"ABA","no",1,1007
"match",8,71,"ABA","yes",1,1243
"match",8,72,"ABA","no",1,1278
"match",8,73,"CBA","no",1,946
"match",8,74,"CBA","yes",1,1294
"match",8,75,"CBA","yes",1,768
"match",8,76,"ABA","yes",1,1429
"match",8,77,"CBA","yes",1,987
"match",8,78,"CBA","yes",1,917
"match",8,79,"CBA","no",1,1403
"match",8,80,"ABA","yes",1,1020
"match",8,81,"CBA","no",1,875
"match",8,82,"CBA","yes",1,835
"match",8,83,"CBA","no",1,909
"match",8,84,"CBA","no",0,1083
"match",8,85,"ABA","no",1,1119
"match",8,86,"CBA","no",1,3336
"match",8,87,"CBA","no",1,930
"match",8,88,"ABA","yes",1,637
"match",8,89,"CBA","no",1,1398
"match",8,90,"CBA","no",1,2255
"match",8,91,"ABA","no",0,1108
"match",8,92,"ABA","yes",1,2114
"match",8,93,"CBA","yes",1,1175
"match",8,94,"ABA","no",1,988
"match",8,95,"CBA","yes",1,884
"match",8,96,"CBA","yes",1,2894
"match",8,97,"ABA","no",1,818
"match",8,98,"ABA","yes",1,1292
"match",8,99,"CBA","no",1,763
"match",8,100,"ABA","no",1,1448
"match",8,101,"ABA","no",1,962
"match",8,102,"ABA","no",1,812
"match",8,103,"CBA","no",1,1014
"match",8,104,"CBA","no",1,2081
"match",8,105,"ABA","no",1,1684
"match",8,106,"ABA","yes",1,1730
"match",8,107,"ABA","no",1,1305
"match",8,108,"ABA","no",1,1710
"match",8,109,"CBA","yes",1,980
"match",8,110,"CBA","yes",1,1088
"match",8,111,"CBA","no",1,1231
"match",8,112,"ABA","no",1,2272
"match",8,113,"CBA","no",1,1313
"match",8,114,"CBA","yes",1,865
"match",8,115,"CBA","yes",1,1134
"match",8,116,"CBA","no",1,1364
"match",8,117,"CBA","no",1,894
"match",8,118,"ABA","no",1,1182
"match",8,119,"CBA","no",1,2507
"match",8,120,"ABA","no",1,829
"match",8,121,"CBA","no",1,1592
"match",8,122,"ABA","no",1,985
"match",8,123,"ABA","no",1,1314
"match",8,124,"ABA","no",1,1280
"match",8,125,"ABA","no",1,1310
"match",8,126,"CBA","no",0,1561
"match",8,127,"CBA","no",1,1748
"match",8,128,"ABA","no",1,789
"match",8,129,"ABA","no",1,1425
"match",8,130,"ABA","no",1,1120
"match",8,131,"CBA","no",1,2217
"match",8,132,"CBA","no",1,1053
"match",8,133,"ABA","yes",1,1139
"match",8,134,"ABA","yes",1,1045
"match",8,135,"ABA","no",0,932
"match",8,136,"ABA","no",1,2540
"match",8,137,"CBA","no",1,1101
"match",8,138,"ABA","no",1,648
"match",8,139,"ABA","yes",1,2136
"match",8,140,"CBA","yes",1,1034
"match",8,141,"CBA","no",1,746
"match",8,142,"CBA","no",1,1728
"match",8,143,"ABA","no",1,923
"match",8,144,"CBA","yes",1,1054
"match",8,145,"CBA","no",1,1186
"match",8,146,"ABA","yes",1,1499
"match",8,147,"ABA","no",1,970
"match",8,148,"ABA","no",1,2063
"match",8,149,"ABA","no",1,938
"match",8,150,"CBA","no",1,1171
"match",8,151,"CBA","yes",1,933
"match",8,152,"CBA","no",1,1116
"match",8,153,"CBA","no",1,2589
"match",8,154,"CBA","yes",1,853
"match",8,155,"ABA","yes",1,1020
"match",8,156,"ABA","no",1,1386
"match",8,157,"CBA","yes",1,835
"match",8,158,"ABA","no",1,1186
"match",8,159,"CBA","yes",1,1819
"match",8,160,"ABA","no",1,1900
"match",8,161,"CBA","no",1,794
"match",8,162,"CBA","no",1,1380
"match",8,163,"ABA","yes",1,622
"match",8,164,"CBA","yes",1,1169
"match",8,165,"ABA","no",1,1405
"match",8,166,"ABA","yes",1,1806
"match",8,167,"ABA","yes",1,804
"match",8,168,"CBA","no",1,1131
"match",8,169,"CBA","no",1,888
"match",8,170,"CBA","no",1,1033
"match",8,171,"ABA","yes",1,2254
"match",8,172,"ABA","no",0,680
"match",8,173,"CBA","yes",1,2256
"match",8,174,"ABA","no",1,927
"match",8,175,"ABA","no",1,1823
"match",8,176,"ABA","yes",1,1945
"match",8,177,"ABA","no",1,1151
"match",8,178,"CBA","no",1,880
"match",8,179,"ABA","no",1,1942
"match",8,180,"ABA","no",1,800
"match",8,181,"CBA","yes",1,1265
"match",8,182,"ABA","no",1,1644
"match",8,183,"CBA","no",1,1865
"match",8,184,"ABA","no",1,1082
"match",8,185,"ABA","no",1,1672
"match",8,186,"CBA","no",1,851
"match",8,187,"ABA","no",1,1161
"match",8,188,"CBA","no",1,901
"match",8,189,"CBA","no",1,795
"match",8,190,"CBA","no",1,721
"match",8,191,"CBA","no",1,1003
"match",8,192,"CBA","no",1,1224
"match",8,193,"CBA","no",1,1099
"match",8,194,"ABA","no",1,999
"match",8,195,"ABA","no",1,1047
"match",8,196,"CBA","no",1,739
"match",8,197,"CBA","yes",1,816
"match",8,198,"ABA","yes",1,1826
"match",8,199,"ABA","yes",1,958
"match",8,200,"CBA","yes",1,880
"match",8,201,"ABA","no",1,919
"match",8,202,"CBA","no",1,2388
"match",8,203,"CBA","no",1,1447
"match",8,204,"ABA","no",1,837
"match",8,205,"ABA","yes",1,839
"match",8,206,"ABA","no",1,1481
"match",8,207,"CBA","no",1,1441
"match",8,208,"ABA","no",1,1580
"match",8,209,"CBA","no",1,719
"match",8,210,"CBA","no",1,1058
"match",8,211,"ABA","no",1,1158
"match",8,212,"CBA","yes",1,2351
"match",8,213,"CBA","no",1,911
"match",8,214,"CBA","no",1,854
"match",8,215,"ABA","no",1,1355
"match",8,216,"CBA","no",1,812
"match",8,217,"CBA","no",1,660
"match",8,218,"CBA","no",1,815
"match",8,219,"CBA","yes",1,1610
"match",8,220,"CBA","no",1,637
"match",8,221,"ABA","no",0,822
"match",8,222,"CBA","no",1,1451
"match",8,223,"CBA","no",1,884
"match",8,224,"ABA","yes",1,818
"match",8,225,"ABA","no",1,1036
"match",8,226,"ABA","no",1,741
"match",8,227,"ABA","no",1,816
"match",8,228,"CBA","no",1,892
"match",8,229,"ABA","no",1,844
"match",8,230,"ABA","yes",1,773
"match",8,231,"ABA","no",1,1444
"match",8,232,"ABA","no",0,1691
"match",8,233,"ABA","no",1,3846
"match",8,234,"CBA","no",1,876
"match",8,235,"CBA","no",1,1800
"match",8,236,"CBA","no",1,974
"match",8,237,"ABA","yes",1,932
"match",8,238,"ABA","no",1,1009
"match",8,239,"ABA","no",1,1249
"match",8,240,"CBA","no",1,1050
"match",8,241,"ABA","no",1,890
"match",8,242,"CBA","yes",1,1187
"match",8,243,"ABA","no",1,814
"match",8,244,"CBA","no",1,716
"match",8,245,"CBA","no",1,1121
"match",8,246,"ABA","no",1,961
"match",8,247,"ABA","no",1,1185
"match",8,248,"ABA","no",1,807
"match",8,249,"CBA","yes",1,863
"match",8,250,"CBA","no",1,633
"match",8,251,"ABA","no",1,1140
"match",8,252,"ABA","no",1,783
"match",8,253,"ABA","yes",1,1465
"match",8,254,"CBA","yes",1,870
"match",8,255,"ABA","no",1,1188
"match",8,256,"ABA","yes",1,863
"match",8,257,"ABA","no",1,1253
"match",8,258,"CBA","yes",1,708
"match",8,259,"CBA","yes",1,1063
"match",8,260,"CBA","no",1,997
"match",8,261,"ABA","no",1,1143
"match",8,262,"CBA","yes",1,704
"match",8,263,"CBA","no",1,1118
"match",8,264,"ABA","no",1,774
"match",8,265,"ABA","yes",1,1696
"match",8,266,"ABA","yes",1,859
"match",8,267,"ABA","no",1,835
"match",8,268,"ABA","no",1,1042
"match",8,269,"ABA","no",1,1024
"match",8,270,"ABA","no",1,601
"match",8,271,"CBA","no",1,859
"match",8,272,"ABA","yes",1,697
"match",8,273,"CBA","no",0,886
"match",8,274,"CBA","no",1,1516
"match",8,275,"ABA","no",1,1417
"match",8,276,"ABA","no",1,1192
"match",8,277,"ABA","yes",1,1637
"match",8,278,"ABA","no",1,1262
"match",8,279,"CBA","no",1,789
"match",8,280,"ABA","no",1,911
"match",8,281,"CBA","no",1,1119
"match",8,282,"CBA","no",1,1293
"match",8,283,"ABA","no",1,1032
"match",8,284,"CBA","no",1,683
"match",8,285,"ABA","no",1,1765
"match",8,286,"CBA","no",1,698
"match",8,287,"CBA","no",1,1689
"match",8,288,"ABA","yes",1,1051
"match",8,289,"ABA","yes",1,785
"match",8,290,"CBA","no",1,879
"match",8,291,"CBA","no",1,1084
"match",8,292,"CBA","yes",1,1436
"match",8,293,"ABA","yes",1,670
"match",8,294,"ABA","no",1,846
"match",8,295,"ABA","yes",1,627
"match",8,296,"ABA","no",1,1970
"match",8,297,"ABA","yes",1,665
"match",8,298,"ABA","yes",1,697
"match",8,299,"CBA","no",1,1034
"match",8,300,"ABA","no",1,2606
"match",8,301,"ABA","no",1,1029
"match",8,302,"ABA","no",1,1340
"match",8,303,"CBA","no",1,728
"match",8,304,"CBA","no",1,853
"match",8,305,"ABA","no",1,699
"match",8,306,"ABA","no",1,3483
"match",8,307,"ABA","no",1,664
"match",8,308,"CBA","no",1,1356
"match",8,309,"ABA","no",1,1490
"match",8,310,"ABA","no",1,862
"match",8,311,"CBA","no",1,831
"match",8,312,"ABA","yes",1,750
"match",8,313,"CBA","no",1,1296
"match",8,314,"CBA","no",1,778
"match",8,315,"ABA","no",1,966
"match",8,316,"ABA","yes",1,1300
"match",8,317,"CBA","no",1,796
"match",8,318,"CBA","yes",1,1295
"match",8,319,"ABA","no",1,784
"match",8,320,"CBA","no",1,2015
"match",8,321,"ABA","yes",1,1039
"match",8,322,"CBA","no",1,932
"match",8,323,"ABA","no",1,973
"match",8,324,"CBA","no",1,1061
"match",8,325,"CBA","yes",1,1042
"match",8,326,"ABA","no",1,1455
"match",8,327,"ABA","no",1,728
"match",8,328,"CBA","no",1,724
"match",8,329,"ABA","no",1,854
"match",8,330,"ABA","yes",1,781
"match",8,331,"CBA","no",1,799
"match",8,332,"CBA","no",1,811
"match",8,333,"ABA","yes",1,1242
"match",8,334,"CBA","yes",1,2468
"match",8,335,"ABA","yes",1,1774
"match",8,336,"CBA","no",1,692
"match",8,337,"CBA","no",1,762
"match",8,338,"CBA","no",1,1884
"match",8,339,"CBA","no",1,670
"match",8,340,"ABA","no",1,1126
"match",8,341,"CBA","no",1,663
"match",8,342,"ABA","yes",1,1614
"match",8,343,"ABA","no",1,1035
"match",8,344,"ABA","no",1,1171
"match",8,345,"ABA","yes",1,780
"match",8,346,"CBA","yes",1,702
"match",8,347,"CBA","no",1,1465
"match",8,348,"CBA","no",1,1448
"match",8,349,"CBA","no",1,1120
"match",8,350,"ABA","no",1,729
"match",8,351,"CBA","no",1,879
"match",8,352,"ABA","no",1,861
"match",8,353,"CBA","no",1,802
"match",8,354,"CBA","no",1,1652
"match",8,355,"ABA","no",1,800
"match",8,356,"CBA","no",1,715
"match",8,357,"ABA","yes",1,1077
"match",8,358,"ABA","no",1,678
"match",8,359,"ABA","yes",1,804
"match",8,360,"CBA","no",1,933
"mismatch",1,1,"CBA","no",1,1308
"mismatch",1,2,"CBA","no",1,609
"mismatch",1,3,"ABA","no",0,337
"mismatch",1,4,"ABA","no",1,639
"mismatch",1,5,"CBA","no",1,542
"mismatch",1,6,"ABA","no",1,649
"mismatch",1,7,"CBA","no",1,392
"mismatch",1,8,"CBA","no",1,1073
"mismatch",1,9,"ABA","no",1,471
"mismatch",1,10,"CBA","no",1,509
"mismatch",1,11,"ABA","no",1,458
"mismatch",1,12,"CBA","no",0,449
"mismatch",1,13,"CBA","no",1,642
"mismatch",1,14,"CBA","no",1,450
"mismatch",1,15,"ABA","no",1,1031
"mismatch",1,16,"CBA","no",1,743
"mismatch",1,17,"CBA","no",1,442
"mismatch",1,18,"ABA","no",1,1449
"mismatch",1,19,"ABA","no",1,504
"mismatch",1,20,"CBA","no",1,477
"mismatch",1,21,"ABA","no",1,603
"mismatch",1,22,"ABA","no",1,1107
"mismatch",1,23,"ABA","no",1,1144
"mismatch",1,24,"ABA","no",1,779
"mismatch",1,25,"CBA","no",0,1253
"mismatch",1,26,"CBA","no",0,949
"mismatch",1,27,"ABA","no",0,2851
"mismatch",1,28,"CBA","no",1,540
"mismatch",1,29,"ABA","no",1,1744
"mismatch",1,30,"ABA","no",1,611
"mismatch",1,31,"ABA","no",1,972
"mismatch",1,33,"CBA","no",1,455
"mismatch",1,34,"ABA","no",1,758
"mismatch",1,35,"ABA","no",1,529
"mismatch",1,36,"CBA","no",1,1509
"mismatch",1,37,"ABA","no",1,585
"mismatch",1,38,"ABA","no",0,1011
"mismatch",1,39,"ABA","no",1,420
"mismatch",1,40,"ABA","no",0,1893
"mismatch",1,41,"CBA","no",1,1556
"mismatch",1,42,"CBA","no",1,439
"mismatch",1,43,"CBA","no",1,823
"mismatch",1,44,"ABA","no",1,455
"mismatch",1,45,"ABA","no",1,1621
"mismatch",1,46,"CBA","no",1,373
"mismatch",1,47,"CBA","no",1,415
"mismatch",1,48,"ABA","no",1,983
"mismatch",1,49,"CBA","no",0,895
"mismatch",1,50,"ABA","no",1,718
"mismatch",1,51,"ABA","no",0,907
"mismatch",1,52,"CBA","no",1,625
"mismatch",1,53,"CBA","no",1,786
"mismatch",1,54,"CBA","no",1,804
"mismatch",1,55,"ABA","no",1,1812
"mismatch",1,56,"ABA","no",1,2093
"mismatch",1,57,"ABA","no",1,514
"mismatch",1,58,"CBA","no",1,734
"mismatch",1,59,"ABA","no",1,1674
"mismatch",1,60,"CBA","no",1,4212
"mismatch",1,61,"ABA","no",1,621
"mismatch",1,62,"ABA","no",1,2662
"mismatch",1,63,"ABA","no",1,877
"mismatch",1,65,"ABA","no",1,581
"mismatch",1,67,"ABA","no",0,1278
"mismatch",1,68,"ABA","no",1,470
"mismatch",1,70,"ABA","no",1,622
"mismatch",1,71,"CBA","no",1,495
"mismatch",1,72,"ABA","no",1,524
"mismatch",1,73,"CBA","no",1,660
"mismatch",1,74,"CBA","no",1,491
"mismatch",1,75,"ABA","no",1,648
"mismatch",1,76,"ABA","no",1,376
"mismatch",1,77,"CBA","no",1,457
"mismatch",1,78,"ABA","no",1,400
"mismatch",1,80,"ABA","no",1,551
"mismatch",1,81,"ABA","no",0,1282
"mismatch",1,82,"ABA","no",1,1811
"mismatch",1,83,"CBA","no",1,691
"mismatch",1,84,"ABA","no",0,1097
"mismatch",1,85,"ABA","no",1,456
"mismatch",1,86,"ABA","no",1,607
"mismatch",1,87,"CBA","no",1,743
"mismatch",1,88,"CBA","no",1,579
"mismatch",1,89,"ABA","no",1,549
"mismatch",1,90,"ABA","no",1,495
"mismatch",1,91,"ABA","no",1,509
"mismatch",1,92,"CBA","no",1,480
"mismatch",1,93,"CBA","no",1,454
"mismatch",1,94,"ABA","no",1,604
"mismatch",1,95,"CBA","no",1,1093
"mismatch",1,96,"ABA","no",1,714
"mismatch",1,97,"CBA","no",1,382
"mismatch",1,98,"ABA","no",1,784
"mismatch",1,99,"ABA","no",1,864
"mismatch",1,100,"ABA","no",1,1079
"mismatch",1,101,"ABA","no",1,439
"mismatch",1,102,"ABA","no",1,710
"mismatch",1,103,"CBA","no",1,1023
"mismatch",1,104,"CBA","no",0,427
"mismatch",1,105,"CBA","no",1,613
"mismatch",1,106,"CBA","no",1,806
"mismatch",1,107,"CBA","no",1,390
"mismatch",1,109,"CBA","no",1,404
"mismatch",1,110,"CBA","no",1,469
"mismatch",1,111,"ABA","no",1,523
"mismatch",1,112,"CBA","no",1,901
"mismatch",1,113,"CBA","no",1,506
"mismatch",1,114,"ABA","no",1,1982
"mismatch",1,115,"CBA","no",1,432
"mismatch",1,116,"CBA","no",1,608
"mismatch",1,117,"CBA","no",1,1025
"mismatch",1,119,"ABA","no",1,1421
"mismatch",1,120,"ABA","no",1,741
"mismatch",1,121,"ABA","no",1,739
"mismatch",1,122,"ABA","no",1,454
"mismatch",1,123,"ABA","no",1,981
"mismatch",1,124,"CBA","no",1,399
"mismatch",1,125,"CBA","no",1,440
"mismatch",1,126,"ABA","no",0,663
"mismatch",1,127,"ABA","no",1,408
"mismatch",1,128,"CBA","no",0,749
"mismatch",1,129,"ABA","no",1,610
"mismatch",1,130,"ABA","no",1,787
"mismatch",1,131,"ABA","no",1,448
"mismatch",1,133,"ABA","no",1,462
"mismatch",1,135,"CBA","no",1,1441
"mismatch",1,136,"ABA","no",1,1600
"mismatch",1,137,"ABA","no",1,577
"mismatch",1,138,"ABA","no",1,1331
"mismatch",1,139,"ABA","no",1,4455
"mismatch",1,140,"CBA","no",1,1150
"mismatch",1,141,"ABA","no",1,2657
"mismatch",1,142,"ABA","no",1,1000
"mismatch",1,143,"CBA","no",1,447
"mismatch",1,144,"CBA","no",1,1046
"mismatch",1,145,"CBA","no",1,534
"mismatch",1,146,"CBA","no",1,1217
"mismatch",1,147,"CBA","no",1,681
"mismatch",1,148,"CBA","no",1,559
"mismatch",1,149,"ABA","no",1,1753
"mismatch",1,150,"CBA","no",1,347
"mismatch",1,151,"CBA","no",1,389
"mismatch",1,152,"CBA","no",1,477
"mismatch",1,153,"CBA","no",1,380
"mismatch",1,154,"CBA","no",1,656
"mismatch",1,155,"CBA","no",1,1006
"mismatch",1,156,"ABA","no",1,479
"mismatch",1,157,"CBA","no",1,773
"mismatch",1,158,"CBA","no",1,631
"mismatch",1,159,"ABA","no",1,719
"mismatch",1,160,"ABA","no",0,484
"mismatch",1,161,"CBA","no",1,539
"mismatch",1,162,"ABA","no",1,671
"mismatch",1,163,"CBA","no",1,1125
"mismatch",1,164,"CBA","no",1,489
"mismatch",1,165,"ABA","no",0,918
"mismatch",1,166,"ABA","no",1,484
"mismatch",1,168,"CBA","no",1,422
"mismatch",1,169,"ABA","no",1,630
"mismatch",1,170,"CBA","no",1,670
"mismatch",1,171,"CBA","no",1,777
"mismatch",1,172,"CBA","no",1,867
"mismatch",1,173,"CBA","no",1,850
"mismatch",1,174,"ABA","no",1,1769
"mismatch",1,175,"CBA","no",1,2203
"mismatch",1,177,"ABA","no",1,834
"mismatch",1,178,"CBA","no",1,571
"mismatch",1,179,"CBA","no",1,1549
"mismatch",1,180,"ABA","no",1,520
"mismatch",1,181,"ABA","no",1,1819
"mismatch",1,182,"ABA","no",1,491
"mismatch",1,183,"CBA","no",1,425
"mismatch",1,184,"ABA","no",1,801
"mismatch",1,185,"CBA","no",1,561
"mismatch",1,186,"ABA","no",0,636
"mismatch",1,187,"ABA","no",1,629
"mismatch",1,188,"ABA","no",1,501
"mismatch",1,189,"CBA","no",1,539
"mismatch",1,190,"CBA","no",1,570
"mismatch",1,191,"ABA","no",1,772
"mismatch",1,192,"CBA","no",1,622
"mismatch",1,194,"ABA","no",1,498
"mismatch",1,196,"ABA","no",1,601
"mismatch",1,197,"CBA","no",1,546
"mismatch",1,198,"CBA","no",1,1054
"mismatch",1,199,"ABA","no",1,3805
"mismatch",1,200,"ABA","no",1,710
"mismatch",1,201,"CBA","no",1,544
"mismatch",1,202,"ABA","no",1,875
"mismatch",1,203,"CBA","no",1,913
"mismatch",1,204,"ABA","no",1,918
"mismatch",1,205,"ABA","no",1,1795
"mismatch",1,206,"ABA","no",1,964
"mismatch",1,207,"ABA","no",1,978
"mismatch",1,208,"ABA","no",1,2124
"mismatch",1,209,"CBA","no",1,616
"mismatch",1,210,"ABA","no",1,2312
"mismatch",1,211,"ABA","no",1,565
"mismatch",1,212,"ABA","no",1,679
"mismatch",1,213,"CBA","no",1,2959
"mismatch",1,214,"CBA","no",1,474
"mismatch",1,215,"ABA","no",1,1007
"mismatch",1,216,"CBA","no",1,528
"mismatch",1,217,"ABA","no",1,772
"mismatch",1,218,"ABA","no",1,446
"mismatch",1,219,"ABA","no",1,830
"mismatch",1,222,"CBA","no",1,750
"mismatch",1,223,"CBA","no",1,392
"mismatch",1,224,"CBA","no",1,466
"mismatch",1,225,"ABA","no",1,578
"mismatch",1,226,"CBA","no",1,732
"mismatch",1,227,"CBA","no",1,383
"mismatch",1,228,"ABA","no",1,905
"mismatch",1,229,"CBA","no",1,466
"mismatch",1,230,"ABA","no",0,873
"mismatch",1,232,"ABA","no",1,969
"mismatch",1,233,"ABA","no",1,747
"mismatch",1,234,"CBA","no",1,678
"mismatch",1,235,"ABA","no",1,1468
"mismatch",1,236,"CBA","no",1,1321
"mismatch",1,237,"CBA","no",1,421
"mismatch",1,238,"CBA","no",1,646
"mismatch",1,239,"ABA","no",1,391
"mismatch",1,240,"ABA","no",0,616
"mismatch",1,242,"ABA","no",1,477
"mismatch",1,244,"ABA","no",1,560
"mismatch",1,245,"CBA","no",1,491
"mismatch",1,246,"ABA","no",1,624
"mismatch",1,247,"CBA","no",1,520
"mismatch",1,248,"ABA","no",1,499
"mismatch",1,249,"CBA","no",1,416
"mismatch",1,250,"ABA","no",1,504
"mismatch",1,251,"CBA","no",1,573
"mismatch",1,252,"ABA","no",1,1023
"mismatch",1,253,"CBA","no",1,455
"mismatch",1,254,"ABA","no",1,1222
"mismatch",1,255,"CBA","no",1,1598
"mismatch",1,256,"ABA","no",1,1280
"mismatch",1,257,"CBA","no",1,966
"mismatch",1,258,"ABA","no",1,2368
"mismatch",1,259,"ABA","no",1,556
"mismatch",1,260,"CBA","no",1,20278
"mismatch",1,262,"ABA","no",0,1864
"mismatch",1,263,"CBA","no",1,513
"mismatch",1,264,"CBA","no",1,549
"mismatch",1,265,"CBA","no",0,2625
"mismatch",1,266,"CBA","no",1,411
"mismatch",1,267,"ABA","no",0,1531
"mismatch",1,268,"CBA","no",1,450
"mismatch",1,269,"CBA","no",1,713
"mismatch",1,270,"ABA","no",1,534
"mismatch",1,271,"CBA","no",1,658
"mismatch",1,272,"CBA","no",1,504
"mismatch",1,273,"ABA","no",1,686
"mismatch",1,275,"ABA","no",1,932
"mismatch",1,276,"ABA","no",1,696
"mismatch",1,277,"ABA","no",1,702
"mismatch",1,278,"CBA","no",1,739
"mismatch",1,279,"ABA","no",1,743
"mismatch",1,280,"CBA","no",1,562
"mismatch",1,281,"CBA","no",0,2313
"mismatch",1,282,"ABA","no",1,807
"mismatch",1,283,"CBA","no",1,800
"mismatch",1,284,"CBA","no",1,777
"mismatch",1,285,"CBA","no",1,723
"mismatch",1,286,"ABA","no",1,895
"mismatch",1,287,"CBA","no",1,652
"mismatch",1,288,"CBA","no",1,427
"mismatch",1,289,"ABA","no",1,635
"mismatch",1,290,"ABA","no",1,523
"mismatch",1,291,"CBA","no",1,559
"mismatch",1,292,"CBA","no",1,940
"mismatch",1,293,"ABA","no",1,1047
"mismatch",1,294,"ABA","no",1,702
"mismatch",1,295,"CBA","no",1,444
"mismatch",1,296,"ABA","no",1,1363
"mismatch",1,297,"CBA","no",1,438
"mismatch",1,298,"CBA","no",1,582
"mismatch",1,299,"CBA","no",1,3320
"mismatch",1,300,"ABA","no",1,405
"mismatch",1,301,"CBA","no",1,1126
